delay,freq,condition,trials.thisRepN,trials.thisTrialN,trials.thisN,trials.thisIndex,thisRow.t,notes,trial.started,polygon.started,polygon_2.started,key_resp.started,polygon.stopped,trial.stopped,key_resp.keys,key_resp.rt,key_resp.duration,beep.started,sound_1.started,sound_1.stopped,beep.stopped,response.started,text.started,textbox.started,button.started,response.stopped,textbox.text,button.numClicks,button.timesOn,button.timesOff,participant,session,date,expName,psychopyVersion,frameRate,expStart,
0.1,1000,exp,0,0,0,9,0.0331063000485301,,0.02761119999922812,0.0331063000485301,1.0011785000097007,1.0011785000097007,1.0349783999845386,7.550288900034502,space,6.535114800091833,None,7.551807099953294,7.666085466804604,7.9816324999555945,7.960649200016633,7.960685200057924,7.9816324999555945,7.9816324999555945,7.9816324999555945,15.818322200095281,300,1,[7.855212399968877],[7.855230099987239],712514,001,2024-11-14_16h04.43.786,intentional binding,2024.1.5,None,2024-11-14 16h04.47.895805 +0530,
0.4,1000,exp,0,1,1,7,15.834052999969572,,15.821271300083026,15.834052999969572,16.834153099916875,16.834153099916875,16.834153099916875,19.602087900042534,space,2.756525499979034,None,19.60297379991971,20.01772096666197,20.34917900012806,20.311856100102887,20.311902800109237,20.34917900012806,20.34917900012806,20.34917900012806,25.353934100130573,200,1,[5.039140100125223],[5.039158100029454],712514,001,2024-11-14_16h04.43.786,intentional binding,2024.1.5,None,2024-11-14 16h04.47.895805 +0530,
0.7,400,unexp,0,2,2,2,25.367338699987158,,25.35553569998592,25.367338699987158,26.36844460014254,26.36844460014254,26.36844460014254,28.170561300124973,space,1.7963549999985844,None,28.171451000031084,28.88463316677759,29.216486799996346,29.181218000128865,29.18128040013835,29.216486799996346,29.216486799996346,29.216486799996346,39.201494300039485,300,1,[10.016424800036475],[10.01644100015983],712514,001,2024-11-14_16h04.43.786,intentional binding,2024.1.5,None,2024-11-14 16h04.47.895805 +0530,
0.1,1000,exp,0,3,3,6,39.21802809997462,,39.203099800040945,39.21802809997462,40.200573900016025,40.200573900016025,40.21713809994981,41.669928800081834,space,1.4597809000406414,None,41.67102460004389,41.7849424665949,42.11583580006845,42.081538500031456,42.081602399935946,42.11583580006845,42.11583580006845,42.11583580006845,45.102483599912375,400,1,[3.0173794000875205],[3.017393800197169],712514,001,2024-11-14_16h04.43.786,intentional binding,2024.1.5,None,2024-11-14 16h04.47.895805 +0530,
0.4,1000,exp,0,4,4,4,45.11762399994768,,45.10382670001127,45.11762399994768,46.11765390005894,46.11765390005894,46.11765390005894,47.50184169993736,space,1.368046699790284,None,47.50311190006323,47.91726836661498,48.23240450001322,48.21167919994332,48.211738999933004,48.23240450001322,48.23240450001322,48.23240450001322,55.000686400104314,200,1,[6.786294500110671],[6.786319600185379],712514,001,2024-11-14_16h04.43.786,intentional binding,2024.1.5,None,2024-11-14 16h04.47.895805 +0530,
0.1,400,unexp,0,5,5,0,55.017043800093234,,55.002267099916935,55.017043800093234,56.00134600000456,56.00134600000456,56.01773370010778,57.43650409998372,space,1.4184801999945194,None,57.43748360010795,57.55156026670399,57.883235099958256,57.85129279992543,57.8513378999196,57.883235099958256,57.883235099958256,57.883235099958256,62.90135880000889,200,1,[5.047133499989286],[5.047150299884379],712514,001,2024-11-14_16h04.43.786,intentional binding,2024.1.5,None,2024-11-14 16h04.47.895805 +0530,
0.4,1000,exp,0,6,6,10,62.91759770014323,,62.90308850002475,62.91759770014323,63.91783910011873,63.91783910011873,63.91783910011873,65.52141100005247,space,1.6012471998110414,None,65.52247279998846,65.93456266663658,66.26622830005363,66.23175520007499,66.23182049999014,66.26622830005363,66.26622830005363,66.26622830005363,68.51797330006957,100,1,[2.2828794999513775],[2.2828961999621242],712514,001,2024-11-14_16h04.43.786,intentional binding,2024.1.5,None,2024-11-14 16h04.47.895805 +0530,
0.4,400,unexp,0,7,7,1,68.53461650013924,,68.51973320008256,68.53461650013924,69.53457159991376,69.53457159991376,69.53457159991376,70.55403120000847,space,1.0125571999233216,None,70.55500510009006,70.9677843666325,71.299353600014,71.26572600007057,71.265793700004,71.299353600014,71.299353600014,71.299353600014,73.33452700008638,100,1,[2.065604800125584],[2.0656222000252455],712514,001,2024-11-14_16h04.43.786,intentional binding,2024.1.5,None,2024-11-14 16h04.47.895805 +0530,
0.7,1000,exp,0,8,8,11,73.35054889996536,,73.33609240013175,73.35054889996536,74.35134060005657,74.35134060005657,74.35134060005657,74.83761849999428,space,0.4805493999738246,None,74.83846969995648,75.55066516675676,75.88255380000919,75.84559589996934,75.84564670012332,75.88255380000919,75.88255380000919,75.88255380000919,83.2374589999672,200,1,[7.388424700126052],[7.388443500036374],712514,001,2024-11-14_16h04.43.786,intentional binding,2024.1.5,None,2024-11-14 16h04.47.895805 +0530,
0.7,1000,exp,0,9,9,5,83.25102480011992,,83.23898950009607,83.25102480011992,84.2515599001199,84.2515599001199,84.2515599001199,85.11998519999906,space,0.8522220000158995,None,85.12094249995425,85.83459896670344,86.1664643001277,86.13217619992793,86.13224570010789,86.1664643001277,86.1664643001277,86.1664643001277,90.06747030001134,100,1,[3.9316496001556516],[3.9316708999685943],712514,001,2024-11-14_16h04.43.786,intentional binding,2024.1.5,None,2024-11-14 16h04.47.895805 +0530,
0.1,1000,exp,0,10,10,3,90.0845184000209,,90.06920329993591,90.0845184000209,91.06862529995851,91.06862529995851,91.08465990005061,91.57067970000207,space,0.49653300014324486,None,91.57168500008993,91.68460696662466,92.01658060005866,91.98137890012003,91.98144509992562,92.01658060005866,92.01658060005866,92.01658060005866,93.95277380011976,200,1,[1.9677506000734866],[1.9677665999624878],712514,001,2024-11-14_16h04.43.786,intentional binding,2024.1.5,None,2024-11-14 16h04.47.895805 +0530,
0.7,1000,exp,0,11,11,8,93.96799289993942,,93.95433229999617,93.96799289993942,94.96852610004134,94.96852610004134,94.96852610004134,95.55349389999174,space,0.5767732998356223,None,95.55448990012519,96.26833246677803,96.59958739997819,96.56166310003027,96.5617170999758,96.59958739997819,96.59958739997819,96.59958739997819,99.43418690003455,300,1,[2.869363699806854],[2.8693785998038948],712514,001,2024-11-14_16h04.43.786,intentional binding,2024.1.5,None,2024-11-14 16h04.47.895805 +0530,
0.7,1000,exp,1,0,12,8,99.450452900026,,99.4359570001252,99.450452900026,100.43499889993109,100.43499889993109,100.45167610002682,101.70342399994843,space,1.2597513000946492,None,101.70423229993321,102.41807666659976,102.74958560010418,102.71151749999262,102.71158470003866,102.74958560010418,102.74958560010418,102.74958560010418,105.16800540010445,400,1,[2.4535338000860065],[2.453557600034401],712514,001,2024-11-14_16h04.43.786,intentional binding,2024.1.5,None,2024-11-14 16h04.47.895805 +0530,
0.1,1000,exp,1,1,13,3,105.18369350000285,,105.1695139000658,105.18369350000285,106.18481449992396,106.18481449992396,106.18481449992396,106.27066699997522,space,0.08032399998046458,None,106.27232090011239,106.38444636675219,106.7163581000641,106.68177190003917,106.68182300007902,106.7163581000641,106.7163581000641,106.7163581000641,123.36857499997132,100,1,[16.68338209996],[16.683399299858138],712514,001,2024-11-14_16h04.43.786,intentional binding,2024.1.5,None,2024-11-14 16h04.47.895805 +0530,
0.4,1000,exp,1,2,14,4,123.38458260009065,,123.37027959991246,123.38458260009065,124.38462790008634,124.38462790008634,124.38462790008634,125.58799119992182,space,1.200817900011316,None,125.58899300009944,126.00261976669232,126.3332253000699,126.30149420001544,126.30154579994269,126.3332253000699,126.3332253000699,126.3332253000699,136.90207930002362,200,1,[10.59764780011028],[10.597664500121027],712514,001,2024-11-14_16h04.43.786,intentional binding,2024.1.5,None,2024-11-14 16h04.47.895805 +0530,
0.7,1000,exp,1,3,15,5,136.91754180006683,,136.903639000142,136.91754180006683,137.91856619995087,137.91856619995087,137.91856619995087,139.53808570001274,space,1.6047370000742376,None,139.53922950010747,140.25157546677318,140.58325719996355,140.55169530003332,140.55175500013866,140.58325719996355,140.58325719996355,140.58325719996355,149.41821700008586,200,1,[8.863667500205338],[8.86368290008977],712514,001,2024-11-14_16h04.43.786,intentional binding,2024.1.5,None,2024-11-14 16h04.47.895805 +0530,
0.4,1000,exp,1,4,16,7,149.43418670003302,,149.4199743999634,149.43418670003302,150.43503320007585,150.43503320007585,150.43503320007585,151.36981289996766,space,0.9188733999617398,None,151.37079590000212,151.78523816663463,152.14978590002283,152.12153020012192,152.12169800000265,152.14978590002283,152.14978590002283,152.14978590002283,155.153227499919,100,1,[3.02842910005711],[3.028446199838072],712514,001,2024-11-14_16h04.43.786,intentional binding,2024.1.5,None,2024-11-14 16h04.47.895805 +0530,
0.4,1000,exp,1,5,17,10,155.16796110011637,,155.15501340012997,155.16796110011637,156.1680940000806,156.1680940000806,156.1680940000806,157.18687140010297,space,1.0079548000358045,None,157.18791999993846,157.60199616669368,157.93312739999965,157.90139969997108,157.90144559997134,157.93312739999965,157.93312739999965,157.93312739999965,162.48430659994483,300,1,[4.5801713000983],[4.580186200095341],712514,001,2024-11-14_16h04.43.786,intentional binding,2024.1.5,None,2024-11-14 16h04.47.895805 +0530,
0.1,1000,exp,1,6,18,9,162.50084210000932,,162.48590190010145,162.50084210000932,163.48546230001375,163.48546230001375,163.50236100004986,164.68693200009875,space,1.1953881999943405,None,164.68793020001613,164.8014497666775,165.13341520004906,165.10200940002687,165.10206219996326,165.13341520004906,165.13341520004906,165.13341520004906,172.8841693000868,200,1,[7.779477100120857],[7.779492100002244],712514,001,2024-11-14_16h04.43.786,intentional binding,2024.1.5,None,2024-11-14 16h04.47.895805 +0530,
0.7,400,unexp,1,7,19,2,172.9011912001297,,172.88572210003622,172.9011912001297,173.88519500009716,173.88519500009716,173.9023818001151,174.7204535000492,space,0.8199164997786283,None,174.721445400035,175.43492476671625,175.7662440999411,175.73190989997238,175.73197800014168,175.7662440999411,175.7662440999411,175.7662440999411,179.43725330010056,300,1,[3.7014058001805097],[3.7014232999645174],712514,001,2024-11-14_16h04.43.786,intentional binding,2024.1.5,None,2024-11-14 16h04.47.895805 +0530,
0.7,1000,exp,1,8,20,11,179.4510363000445,,179.43875710014254,179.4510363000445,180.45173890003935,180.45173890003935,180.45173890003935,181.65480259992182,space,1.2004108000546694,None,181.655889299931,182.36890226678614,182.68316769995727,182.66152810002677,182.6615756000392,182.68316769995727,182.68316769995727,182.68316769995727,185.21980109997094,400,1,[2.5556866000406444],[2.5556989000178874],712514,001,2024-11-14_16h04.43.786,intentional binding,2024.1.5,None,2024-11-14 16h04.47.895805 +0530,
0.1,400,unexp,1,9,21,0,185.23358140001073,,185.2211492001079,185.23358140001073,186.23299930011854,186.23299930011854,186.23299930011854,187.43386760004796,space,1.1924323998391628,None,187.434269499965,187.53340196662273,187.8490478999447,187.8308216999285,187.83085809997283,187.8490478999447,187.8490478999447,187.8490478999447,190.03444600012153,100,1,[2.202120400033891],[2.2021296001039445],712514,001,2024-11-14_16h04.43.786,intentional binding,2024.1.5,None,2024-11-14 16h04.47.895805 +0530,
0.4,400,unexp,1,10,22,1,190.0509373000823,,190.0352874000091,190.0509373000823,191.04968699999154,191.04968699999154,191.06679160008207,192.95536689995788,space,1.9026211998425424,None,192.956826900132,193.36627916671958,193.69973889994435,193.67061830009334,193.670660499949,193.69973889994435,193.69973889994435,193.69973889994435,195.64954710006714,200,1,[1.9769717999733984],[1.9769786999095231],712514,001,2024-11-14_16h04.43.786,intentional binding,2024.1.5,None,2024-11-14 16h04.47.895805 +0530,
0.1,1000,exp,1,11,23,6,195.6662071000319,,195.65038280002773,195.6662071000319,196.6587867999915,196.6587867999915,196.66683780006133,197.25134850014,space,0.575565499952063,None,197.2519066000823,197.3580143666516,197.68207330000587,197.66563339997083,197.66567920008674,197.68207330000587,197.68207330000587,197.68207330000587,199.68412370001897,100,1,[2.0164882000535727],[2.016499200137332],712514,001,2024-11-14_16h04.43.786,intentional binding,2024.1.5,None,2024-11-14 16h04.47.895805 +0530,
0.1,1000,exp,2,0,24,6,199.6995906000957,,199.68478740006685,199.6995906000957,200.7002455999609,200.7002455999609,200.7002455999609,201.2575032999739,space,0.5468425999861211,None,201.2579415999353,201.36737166677293,201.68252929998562,201.66436449997127,201.6644154000096,201.68252929998562,201.68252929998562,201.68252929998562,203.63373790006153,200,1,[1.967015199828893],[1.9670239998959005],712514,001,2024-11-14_16h04.43.786,intentional binding,2024.1.5,None,2024-11-14 16h04.47.895805 +0530,
0.1,400,unexp,2,1,25,0,203.65426909993403,,203.6349711001385,203.65426909993403,204.63498490001075,204.63498490001075,204.67969570006244,205.0927991999779,space,0.45326430001296103,None,205.0937155999709,205.1997868666115,205.53347739996389,205.51271550008096,205.5127441000659,205.53347739996389,205.53347739996389,205.53347739996389,207.53633620007895,300,1,[2.022061600117013],[2.0220683999359608],712514,001,2024-11-14_16h04.43.786,intentional binding,2024.1.5,None,2024-11-14 16h04.47.895805 +0530,
0.4,400,unexp,2,2,26,1,207.5494810999371,,207.53699810011312,207.5494810999371,208.54952870006673,208.54952870006673,208.54952870006673,208.6507985999342,space,0.09812660003080964,None,208.65121360006742,209.05094466667313,209.36638980009593,209.35104310000315,209.35107770003378,209.36638980009593,209.36638980009593,209.36638980009593,212.85131810000166,100,1,[3.4984836000949144],[3.4984957999549806],712514,001,2024-11-14_16h04.43.786,intentional binding,2024.1.5,None,2024-11-14 16h04.47.895805 +0530,
0.7,1000,exp,2,3,27,5,212.8669086000882,,212.85247569996864,212.8669086000882,213.86657240008935,213.86657240008935,213.86657240008935,214.3673094001133,space,0.4842306999489665,None,214.3676682000514,215.08320256678078,215.39890730008483,215.38083019992337,215.38088389998302,215.39890730008483,215.39890730008483,215.39890730008483,217.36743109999225,400,1,[1.9845123998820782],[1.9845193999353796],712514,001,2024-11-14_16h04.43.786,intentional binding,2024.1.5,None,2024-11-14 16h04.47.895805 +0530,
0.1,1000,exp,2,4,28,9,217.38308249996044,,217.3681475999765,217.38308249996044,218.38327499991283,218.38327499991283,218.38327499991283,218.96857449994422,space,0.5825678000692278,None,218.96900629997253,219.083585466786,219.39915930014104,219.38317980011925,219.38324599992484,219.39915930014104,219.39915930014104,219.39915930014104,221.41773220011964,100,1,[2.0326324000488967],[2.032641700003296],712514,001,2024-11-14_16h04.43.786,intentional binding,2024.1.5,None,2024-11-14 16h04.47.895805 +0530,
0.4,1000,exp,2,5,29,4,221.43302000011317,,221.4185581000056,221.43302000011317,222.41700619994663,222.41700619994663,222.43393569998443,222.78500439994968,space,0.3504003998823464,None,222.78561539994553,223.20022006665047,223.53254249994643,223.50108910002746,223.50111930002458,223.53254249994643,223.53254249994643,223.53254249994643,225.5846762000583,200,1,[2.08200449985452],[2.082014000043273],712514,001,2024-11-14_16h04.43.786,intentional binding,2024.1.5,None,2024-11-14 16h04.47.895805 +0530,
0.4,1000,exp,2,6,30,7,225.5998265000526,,225.58570679998957,225.5998265000526,226.6015558000654,226.6015558000654,226.6015558000654,227.18461070000194,space,0.5747813999187201,None,227.18515809997916,227.59987006668624,227.91586440009996,227.90077159996144,227.9007930001244,227.91586440009996,227.91586440009996,227.91586440009996,230.1676803000737,300,1,[2.26556699979119],[2.2655743998475373],712514,001,2024-11-14_16h04.43.786,intentional binding,2024.1.5,None,2024-11-14 16h04.47.895805 +0530,
0.7,1000,exp,2,7,31,11,230.24897590000182,,230.16834220010787,230.24897590000182,231.18347169994377,231.18347169994377,231.24998879991472,231.73454640014097,space,0.5351487998850644,None,231.73531270003878,232.450576766689,232.76578949997202,232.74066510004923,232.7407005999703,232.76578949997202,232.76578949997202,232.76578949997202,234.8846960000228,400,1,[2.1425413000397384],[2.1425514998845756],712514,001,2024-11-14_16h04.43.786,intentional binding,2024.1.5,None,2024-11-14 16h04.47.895805 +0530,
0.7,1000,exp,2,8,32,8,234.8996916001197,,234.88581399992108,234.8996916001197,235.9000363999512,235.9000363999512,235.9000363999512,236.53507969994098,space,0.6227027999702841,None,236.53570750006475,237.249752866632,237.56578760012053,237.55073300004005,237.55076629994437,237.56578760012053,237.56578760012053,237.56578760012053,239.58567699999548,400,1,[2.033354999963194],[2.033363299909979],712514,001,2024-11-14_16h04.43.786,intentional binding,2024.1.5,None,2024-11-14 16h04.47.895805 +0530,
0.4,1000,exp,2,9,33,10,239.59997089998797,,239.58684880007058,239.59997089998797,240.59974760003388,240.59974760003388,240.59974760003388,241.1175742999185,space,0.5074996999464929,None,241.1179526001215,241.53307136666652,241.8672686999198,241.8446887000464,241.8447267001029,241.8672686999198,241.8672686999198,241.8672686999198,243.86781869991682,300,1,[2.0217116998974234],[2.0217211998533458],712514,001,2024-11-14_16h04.43.786,intentional binding,2024.1.5,None,2024-11-14 16h04.47.895805 +0530,
0.1,1000,exp,2,10,34,3,243.8832066000905,,243.86890100012533,243.8832066000905,244.88315970008262,244.88315970008262,244.88315970008262,245.6188400001265,space,0.727002700092271,None,245.61938680009916,245.73320536670897,,246.0167404001113,246.01676800008863,246.03255210001953,246.03255210001953,246.03255210001953,249.23512440011837,100,1,[3.2168372001033276],[3.216848500072956],712514,001,2024-11-14_16h04.43.786,intentional binding,2024.1.5,None,2024-11-14 16h04.47.895805 +0530,
0.7,400,unexp,2,11,35,2,249.25090230000205,,249.23611430008896,249.25090230000205,250.25089409993961,250.25089409993961,250.25089409993961,250.98420049995184,space,0.7201796998269856,None,250.98453090013936,251.68445976666797,252.0002743001096,251.98326710006222,251.98329339991324,252.0002743001096,252.0002743001096,252.0002743001096,254.05262729991227,300,1,[2.0679251002147794],[2.0679355000611395],712514,001,2024-11-14_16h04.43.786,intentional binding,2024.1.5,None,2024-11-14 16h04.47.895805 +0530,
0.4,1000,exp,3,0,36,4,254.06647290010005,,254.0533485999331,254.06647290010005,255.0667332999874,255.0667332999874,255.0667332999874,255.78483740007505,space,0.7115745001938194,None,255.78540319995955,256.19979286665716,256.5155831000302,256.5012113000266,256.5012421000283,256.5155831000302,256.5155831000302,256.5155831000302,259.1514475001022,200,1,[2.648581499932334],[2.648592700017616],712514,001,2024-11-14_16h04.43.786,intentional binding,2024.1.5,None,2024-11-14 16h04.47.895805 +0530,
0.4,1000,exp,3,1,37,10,259.1669530000072,,259.1521402001381,259.1669530000072,260.1667563000228,260.1667563000228,260.1667563000228,260.76804160000756,space,0.5978395000565797,None,260.76864730007946,261.1837302665847,261.49910979997367,261.48059800011106,261.48063419992104,261.49910979997367,261.49910979997367,261.49910979997367,263.5513693001121,100,1,[2.068647100124508],[2.0686570000834763],712514,001,2024-11-14_16h04.43.786,intentional binding,2024.1.5,None,2024-11-14 16h04.47.895805 +0530,
0.7,1000,exp,3,2,38,5,263.566597700119,,263.55217700009234,263.566597700119,264.5666259001009,264.5666259001009,264.5666259001009,265.16779340012,space,0.5932171999011189,None,265.1682746000588,265.8834892667985,,266.1353394999169,266.1353657001164,266.14927670010366,266.14927670010366,266.14927670010366,268.30143960006535,400,1,[2.164375700056553],[2.164389899931848],712514,001,2024-11-14_16h04.43.786,intentional binding,2024.1.5,None,2024-11-14 16h04.47.895805 +0530,
0.7,1000,exp,3,3,39,11,268.3168762999121,,268.30315080005676,268.3168762999121,269.3187208001036,269.3187208001036,269.3187208001036,270.4358049000148,space,1.1145522000733763,None,270.4362441999838,271.1353809666509,271.46680560009554,271.43297399999574,271.43304120004177,271.46680560009554,271.46680560009554,271.46680560009554,273.26901259995066,400,1,[1.832664400106296],[1.832680300110951],712514,001,2024-11-14_16h04.43.786,intentional binding,2024.1.5,None,2024-11-14 16h04.47.895805 +0530,
0.1,1000,exp,3,4,40,3,273.28467030008323,,273.2705556000583,273.28467030008323,274.28513720002957,274.28513720002957,274.28513720002957,274.63693409995176,space,0.3381258000154048,None,274.6379803000018,274.7516894667099,275.08337439992465,275.05155829992145,275.0516057999339,275.08337439992465,275.08337439992465,275.08337439992465,277.70313909999095,300,1,[2.648847999982536],[2.648863699985668],712514,001,2024-11-14_16h04.43.786,intentional binding,2024.1.5,None,2024-11-14 16h04.47.895805 +0530,
0.7,400,unexp,3,5,41,2,277.71810359996744,,277.7046471000649,277.71810359996744,278.7172934000846,278.7172934000846,278.7172934000846,279.6679629001301,space,0.9359865000005811,None,279.6684213001281,280.3681348667635,280.68338950001635,280.6618407999631,280.6619172000792,280.68338950001635,280.68338950001635,280.68338950001635,283.8183852999937,400,1,[3.1542366999201477],[3.154243699973449],712514,001,2024-11-14_16h04.43.786,intentional binding,2024.1.5,None,2024-11-14 16h04.47.895805 +0530,
0.1,1000,exp,3,6,42,9,283.83310639997944,,283.8189737999346,283.83310639997944,284.81831469992176,284.81831469992176,284.8358507999219,285.6039179000072,space,0.7730708001181483,None,285.6047879999969,285.7181936666059,286.0501771001145,286.01135820010677,286.0113989999518,286.0501771001145,286.0501771001145,286.0501771001145,288.00105650001206,200,1,[1.9878187999129295],[1.9878248998429626],712514,001,2024-11-14_16h04.43.786,intentional binding,2024.1.5,None,2024-11-14 16h04.47.895805 +0530,
0.4,400,unexp,3,7,43,1,288.01686600013636,,288.00170570006594,288.01686600013636,289.0018627999816,289.0018627999816,289.01901879999787,290.12068459996954,space,1.1039596998598427,None,290.1216907000635,290.5349461667395,290.86691799992695,290.8321752999909,290.83224170003086,290.86691799992695,290.86691799992695,290.86691799992695,292.42014760011807,100,1,[1.584060400025919],[1.5840757000260055],712514,001,2024-11-14_16h04.43.786,intentional binding,2024.1.5,None,2024-11-14 16h04.47.895805 +0530,
0.1,400,unexp,3,8,44,0,292.4345706999302,,292.42189530003816,292.4345706999302,293.4346988000907,293.4346988000907,293.4346988000907,294.2700026000384,space,0.8259809000883251,None,294.27092769998126,294.38571236661323,294.7166355000809,294.6813207999803,294.6813898999244,294.7166355000809,294.7166355000809,294.7166355000809,296.8196930999402,100,1,[2.1341591000091285],[2.1341832000762224],712514,001,2024-11-14_16h04.43.786,intentional binding,2024.1.5,None,2024-11-14 16h04.47.895805 +0530,
0.7,1000,exp,3,9,45,8,296.8357794000767,,296.821387300035,296.8357794000767,297.83563470002264,297.83563470002264,297.83563470002264,298.72062460007146,space,0.8796480000019073,None,298.721532399999,299.43544006679826,299.76728609995916,299.7314480000641,299.7315076999366,299.76728609995916,299.76728609995916,299.76728609995916,302.1364362000022,300,1,[2.400837100110948],[2.4008543000090867],712514,001,2024-11-14_16h04.43.786,intentional binding,2024.1.5,None,2024-11-14 16h04.47.895805 +0530,
0.1,1000,exp,3,10,46,6,302.15186939993873,,302.1380755000282,302.15186939993873,303.1522665999364,303.1522665999364,303.1522665999364,304.12095770007,space,0.9645654000341892,None,304.12202919996344,304.2352447666383,304.56674559996463,304.53121960000135,304.53127450007014,304.56674559996463,304.56674559996463,304.56674559996463,306.85436429991387,100,1,[2.3196650000754744],[2.31968230009079],712514,001,2024-11-14_16h04.43.786,intentional binding,2024.1.5,None,2024-11-14 16h04.47.895805 +0530,
0.4,1000,exp,3,11,47,7,306.86793170007877,,306.8558837000746,306.86793170007877,307.8691002000123,307.8691002000123,307.8691002000123,308.5873644000385,space,0.7121202000416815,None,308.58822369994596,309.0018717665846,309.31697449996136,309.3025724000763,309.30260429996997,309.31697449996136,309.31697449996136,309.31697449996136,311.385536900023,200,1,[2.080900900065899],[2.080919000087306],712514,001,2024-11-14_16h04.43.786,intentional binding,2024.1.5,None,2024-11-14 16h04.47.895805 +0530,
0.1,1000,exp,4,0,48,3,311.40132219996303,,311.387115099933,311.40132219996303,312.40191389992833,312.40191389992833,312.40191389992833,312.9541772000957,space,0.5356894000433385,None,312.9551659999415,313.0686907666425,313.41681340010837,313.38766140001826,313.3878373000771,313.41681340010837,313.41681340010837,313.41681340010837,315.485275400104,100,1,[2.094321900047362],[2.0943370999302715],712514,001,2024-11-14_16h04.43.786,intentional binding,2024.1.5,None,2024-11-14 16h04.47.895805 +0530,
0.7,1000,exp,4,1,49,8,315.5016576999333,,315.48683880013414,315.5016576999333,316.4856656000484,316.4856656000484,316.5029901000671,317.2538948999718,space,0.750858600018546,None,317.2550017000176,317.97039786662594,318.2998427001294,318.26964109996334,318.26968790008686,318.2998427001294,318.2998427001294,318.2998427001294,320.85327080008574,300,1,[2.5806690000463277],[2.5806843999307603],712514,001,2024-11-14_16h04.43.786,intentional binding,2024.1.5,None,2024-11-14 16h04.47.895805 +0530,
0.7,400,unexp,4,2,50,2,320.8680086999666,,320.8548560999334,320.8680086999666,321.86825200007297,321.86825200007297,321.86825200007297,322.30582499993034,space,0.4328220000024885,None,322.30675560003147,323.0189883667665,323.33353199996054,323.31189469993114,323.311941599939,323.33353199996054,323.33353199996054,323.33353199996054,326.1528744001407,200,1,[2.838470600079745],[2.8384901999961585],712514,001,2024-11-14_16h04.43.786,intentional binding,2024.1.5,None,2024-11-14 16h04.47.895805 +0530,
0.4,1000,exp,4,3,51,10,326.16820510011166,,326.1544961000327,326.16820510011166,327.16923260013573,327.16923260013573,327.16923260013573,328.0516607000027,space,0.8674533998128027,None,328.0521329001058,328.4519347667849,328.7840903000906,328.7517182000447,328.7517643000465,328.7840903000906,328.7840903000906,328.7840903000906,331.2690286000725,100,1,[2.5141227999702096],[2.5141397998668253],712514,001,2024-11-14_16h04.43.786,intentional binding,2024.1.5,None,2024-11-14 16h04.47.895805 +0530,
0.1,1000,exp,4,4,52,9,331.2849517001305,,331.2706003000494,331.2849517001305,332.2852155000437,332.2852155000437,332.2852155000437,333.82064349995926,space,1.517930599860847,None,333.82154519995674,333.93527296680645,334.26720470003784,334.23126569995657,334.23132400005125,334.26720470003784,334.26720470003784,334.26720470003784,336.3372043001,100,1,[2.102534000063315],[2.102550100069493],712514,001,2024-11-14_16h04.43.786,intentional binding,2024.1.5,None,2024-11-14 16h04.47.895805 +0530,
0.7,1000,exp,4,5,53,5,336.35195980011486,,336.33872360014357,336.35195980011486,337.35199240013026,337.35199240013026,337.35199240013026,338.1868358000647,space,0.8177114999853075,None,338.18776610004716,338.90265226673023,339.2338064000942,339.2023147,339.20236320002005,339.2338064000942,339.2338064000942,339.2338064000942,341.10347390011884,200,1,[1.8982095001265407],[1.8982244001235813],712514,001,2024-11-14_16h04.43.786,intentional binding,2024.1.5,None,2024-11-14 16h04.47.895805 +0530,
0.7,1000,exp,4,6,54,11,341.11865520011634,,341.10509070008993,341.11865520011634,342.1183879999444,342.1183879999444,342.1183879999444,342.92125010001473,space,0.7953723999671638,None,342.92236620001495,343.6354224666177,343.96694350009784,343.93182680010796,343.931900100084,343.96694350009784,343.96694350009784,343.96694350009784,346.1192278000526,300,1,[2.1837421997915953],[2.183758699800819],712514,001,2024-11-14_16h04.43.786,intentional binding,2024.1.5,None,2024-11-14 16h04.47.895805 +0530,
0.4,1000,exp,4,7,55,4,346.13487830013037,,346.120790499961,346.13487830013037,347.13509849994443,347.13509849994443,347.13509849994443,347.47092170012183,space,0.3275005999021232,None,347.471888900036,347.8854332666999,348.21719180000946,348.18159710010514,348.18165939999744,348.21719180000946,348.21719180000946,348.21719180000946,350.22019929997623,100,1,[2.034932899987325],[2.03494879999198],712514,001,2024-11-14_16h04.43.786,intentional binding,2024.1.5,None,2024-11-14 16h04.47.895805 +0530,
0.4,400,unexp,4,8,56,1,350.2350149000995,,350.2217115999665,350.2350149000995,351.2358699000906,351.2358699000906,351.2358699000906,351.9043650000822,space,0.6622081000823528,None,351.90538859996013,352.31888096669377,352.65021250001155,352.6113068999257,352.6113569000736,352.65021250001155,352.65021250001155,352.65021250001155,357.13738379999995,200,1,[4.523146399995312],[4.52316250000149],712514,001,2024-11-14_16h04.43.786,intentional binding,2024.1.5,None,2024-11-14 16h04.47.895805 +0530,
0.1,400,unexp,4,9,57,0,357.1514586999547,,357.13871029997244,357.1514586999547,358.1521930000745,358.1521930000745,358.1521930000745,360.12037179991603,space,1.956223800079897,None,360.1214012999553,360.2353400667819,360.56700709997676,360.53193940012716,360.531993499957,360.56700709997676,360.56700709997676,360.56700709997676,362.6859353999607,100,1,[2.151213899953291],[2.1512444999534637],712514,001,2024-11-14_16h04.43.786,intentional binding,2024.1.5,None,2024-11-14 16h04.47.895805 +0530,
0.4,1000,exp,4,10,58,7,362.70245789992623,,362.68749010004103,362.70245789992623,363.70281130005606,363.70281130005606,363.70281130005606,364.4206948999781,space,0.7032858999446034,None,364.42158919991925,364.83553546673306,365.1671909999568,365.13112960010767,365.13119430001825,365.1671909999568,365.1671909999568,365.1671909999568,367.1846380000934,200,1,[2.050093099940568],[2.0501081999391317],712514,001,2024-11-14_16h04.43.786,intentional binding,2024.1.5,None,2024-11-14 16h04.47.895805 +0530,
0.1,1000,exp,4,11,59,6,367.20127760013565,,367.18620400014333,367.20127760013565,368.18534730002284,368.18534730002284,368.2025566000957,369.00516379997134,space,0.8149421999696642,None,369.00620099995285,369.11859496665807,369.4505630999338,369.41159990010783,369.4116474001203,369.4505630999338,369.4505630999338,369.4505630999338,371.5856811001431,100,1,[2.171188799897209],[2.171206999802962],712514,001,2024-11-14_16h04.43.786,intentional binding,2024.1.5,None,2024-11-14 16h04.47.895805 +0530,
0.4,1000,exp,5,0,60,4,371.6014177999459,,371.5873241999652,371.6014177999459,372.602459799964,372.602459799964,372.602459799964,373.27190060005523,space,0.6660056000109762,None,373.2728989000898,373.68564106669896,374.0171823001001,373.9820522000082,373.9821536000818,374.0171823001001,374.0171823001001,374.0171823001001,376.07013080012985,100,1,[2.084054399980232],[2.0840692999772727],712514,001,2024-11-14_16h04.43.786,intentional binding,2024.1.5,None,2024-11-14 16h04.47.895805 +0530,
0.7,1000,exp,5,1,61,11,376.08498809998855,,376.07191730011255,376.08498809998855,377.08574000000954,377.08574000000954,377.08574000000954,377.6207391999196,space,0.5253352001309395,None,377.62161749997176,378.3352778666342,378.6673081999179,378.63171460013837,378.6317748001311,378.6673081999179,378.6673081999179,378.6673081999179,383.1037228999194,200,1,[4.468307400122285],[4.468323400011286],712514,001,2024-11-14_16h04.43.786,intentional binding,2024.1.5,None,2024-11-14 16h04.47.895805 +0530,
0.4,400,unexp,5,2,62,1,383.1185697999317,,383.1053619000595,383.1185697999317,384.11885230010375,384.11885230010375,384.11885230010375,384.9045494000893,space,0.7774380999617279,None,384.90540100005455,385.31877626671144,385.6505120000802,385.61214009998366,385.6121884000022,385.6505120000802,385.6505120000802,385.6505120000802,387.73647210001945,100,1,[2.1213583000935614],[2.1214086001273245],712514,001,2024-11-14_16h04.43.786,intentional binding,2024.1.5,None,2024-11-14 16h04.47.895805 +0530,
0.1,400,unexp,5,3,63,0,387.7518539999146,,387.7380142000038,387.7518539999146,388.75215249997564,388.75215249997564,388.75215249997564,390.53842850006185,space,1.779359000036493,None,390.5395043999888,390.6517896666812,390.983746800106,390.95181290013716,390.9518613999244,390.983746800106,390.983746800106,390.983746800106,393.27025449997745,100,1,[2.31567190005444],[2.315689700189978],712514,001,2024-11-14_16h04.43.786,intentional binding,2024.1.5,None,2024-11-14 16h04.47.895805 +0530,
0.7,400,unexp,5,4,64,2,393.2849218000192,,393.27175569999963,393.2849218000192,394.28574419999495,394.28574419999495,394.28574419999495,395.40563670010306,space,1.112528300145641,None,395.40677609993145,396.1192062667726,396.45045180013403,396.41117909993045,396.4112253000494,396.45045180013403,396.45045180013403,396.45045180013403,398.38464309996925,300,1,[1.9707410000264645],[1.970754599897191],712514,001,2024-11-14_16h04.43.786,intentional binding,2024.1.5,None,2024-11-14 16h04.47.895805 +0530,
0.4,1000,exp,5,5,65,7,398.40149790002033,,398.38626329996623,398.40149790002033,399.38513860013336,399.38513860013336,399.40281679993495,399.83718729997054,space,0.44382379995658994,None,399.8380839000456,400.25237336667874,400.5841604999732,400.55187580012716,400.5519258000422,400.5841604999732,400.5841604999732,400.5841604999732,402.5015344999265,200,1,[1.9466383000835776],[1.9466528999619186],712514,001,2024-11-14_16h04.43.786,intentional binding,2024.1.5,None,2024-11-14 16h04.47.895805 +0530,
0.7,1000,exp,5,6,66,5,402.5186870000325,,402.5032126000151,402.5186870000325,403.50236860010773,403.50236860010773,403.51870550005697,403.97116770013236,space,0.46594549994915724,None,403.97217259998433,404.6853525667141,405.0171344000846,404.9812251001131,404.9812910000328,405.0171344000846,405.0171344000846,405.0171344000846,406.93503140006214,400,1,[1.9509148001670837],[1.9509298000484705],712514,001,2024-11-14_16h04.43.786,intentional binding,2024.1.5,None,2024-11-14 16h04.47.895805 +0530,
0.4,1000,exp,5,7,67,10,406.95142789999954,,406.9365163000766,406.95142789999954,407.9355941999238,407.9355941999238,407.95193649991415,408.4542553999927,space,0.5080401001032442,None,408.45562550006434,408.8695690667412,409.2003506999463,409.1612762999721,409.1613249001093,409.2003506999463,409.2003506999463,409.2003506999463,411.67156459996477,100,1,[2.5073951999656856],[2.507414599880576],712514,001,2024-11-14_16h04.43.786,intentional binding,2024.1.5,None,2024-11-14 16h04.47.895805 +0530,
0.7,1000,exp,5,8,68,8,411.68528819992207,,411.6730744999368,411.68528819992207,412.6854739000555,412.6854739000555,412.6854739000555,413.1384012999479,space,0.44658029987476766,None,413.13925700006075,413.8522739667135,414.1846612000372,414.1513672999572,414.1514498000033,414.1846612000372,414.1846612000372,414.1846612000372,416.56944769993424,300,1,[2.4151927998755127],[2.4152106000110507],712514,001,2024-11-14_16h04.43.786,intentional binding,2024.1.5,None,2024-11-14 16h04.47.895805 +0530,
0.1,1000,exp,5,9,69,6,416.58530790009536,,416.5709979000967,416.58530790009536,417.58506620000117,417.58506620000117,417.58506620000117,418.13844819995575,space,0.5471949998755008,None,418.13942179991864,418.2522192667859,418.58371439995244,418.5519016000908,418.5519644001033,418.58371439995244,418.58371439995244,418.58371439995244,420.8683571999427,200,1,[2.312617499846965],[2.3126271998044103],712514,001,2024-11-14_16h04.43.786,intentional binding,2024.1.5,None,2024-11-14 16h04.47.895805 +0530,
0.1,1000,exp,5,10,70,9,420.8833198000211,,420.8693844000809,420.8833198000211,421.8686119001359,421.8686119001359,421.88500449992716,423.0715262000449,space,1.1999807001557201,None,423.0724943999667,423.18563306663805,423.5004175999202,423.4753235001117,423.4753696999978,423.5004175999202,423.5004175999202,423.5004175999202,425.7186080000829,100,1,[2.2405018000863492],[2.2405179000925273],712514,001,2024-11-14_16h04.43.786,intentional binding,2024.1.5,None,2024-11-14 16h04.47.895805 +0530,
0.1,1000,exp,5,11,71,3,425.7348849000409,,425.7202169999946,425.7348849000409,426.73476690007374,426.73476690007374,426.73476690007374,427.52114790002815,space,0.77859599981457,None,427.5220081000589,427.6365872666395,427.9675871001091,427.93930710013956,427.9393537999131,427.9675871001091,427.9675871001091,427.9675871001091,429.91997970012017,100,1,[1.9782023001462221],[1.9782172001432627],712514,001,2024-11-14_16h04.43.786,intentional binding,2024.1.5,None,2024-11-14 16h04.47.895805 +0530,
0.4,1000,exp,6,0,72,10,429.9347729999572,,429.92155530001037,429.9347729999572,430.93592939991504,430.93592939991504,430.93592939991504,431.3217414000537,space,0.3786947000771761,None,431.32304330007173,431.73563866672725,432.06772330007516,432.0334338999819,432.0335405000951,432.06772330007516,432.06772330007516,432.06772330007516,434.2179972999729,100,1,[2.182002200046554],[2.182010499993339],712514,001,2024-11-14_16h04.43.786,intentional binding,2024.1.5,None,2024-11-14 16h04.47.895805 +0530,
0.7,400,unexp,6,1,73,2,434.23329730005935,,434.2189482001122,434.23329730005935,435.22778880014084,435.22778880014084,435.2509940001182,435.7385734000709,space,0.4983457000926137,None,435.7400573999621,436.4502354667677,436.7830837001093,436.7659112000838,436.7659873000812,436.7830837001093,436.7830837001093,436.7830837001093,439.5509745001327,200,1,[2.783340300200507],[2.7833463000133634],712514,001,2024-11-14_16h04.43.786,intentional binding,2024.1.5,None,2024-11-14 16h04.47.895805 +0530,
0.1,400,unexp,6,2,74,0,439.5666974999476,,439.5515606000554,439.5666974999476,440.5519872000441,440.5519872000441,440.56819500005804,440.9207178999204,space,0.3656068998388946,None,440.9220267001074,441.0346910667761,,441.30109530012123,441.30114719993435,441.33326240000315,441.33326240000315,441.33326240000315,444.16840149997734,100,1,[2.8647094999905676],[2.8647184998262674],712514,001,2024-11-14_16h04.43.786,intentional binding,2024.1.5,None,2024-11-14 16h04.47.895805 +0530,
0.7,1000,exp,6,3,75,11,444.18366140010767,,444.16899939998984,444.18366140010767,445.18378349998966,445.18378349998966,445.18378349998966,445.6693790999707,space,0.4814949999563396,None,445.66989269992337,446.3839076667248,446.6996242001187,446.6804969001096,446.6805201000534,446.6996242001187,446.6996242001187,446.6996242001187,450.11918030004017,200,1,[3.4365801999811083],[3.4365964999888092],712514,001,2024-11-14_16h04.43.786,intentional binding,2024.1.5,None,2024-11-14 16h04.47.895805 +0530,
0.4,1000,exp,6,4,76,7,450.13548159995116,,450.12083230004646,450.13548159995116,451.1340423000511,451.1340423000511,451.15166760003194,451.7391240999568,space,0.6004387000575662,None,451.7399552001152,452.152104866753,,452.43091710004956,452.4309477999341,452.4495963000227,452.4495963000227,452.4495963000227,454.8359284000471,100,1,[2.403094799956307],[2.403104400029406],712514,001,2024-11-14_16h04.43.786,intentional binding,2024.1.5,None,2024-11-14 16h04.47.895805 +0530,
0.7,1000,exp,6,5,77,8,454.8503181999549,,454.8366298000328,454.8503181999549,455.8503658999689,455.8503658999689,455.8503658999689,456.9874990999233,space,1.1316098999232054,None,456.9884981000796,457.70062466670447,458.0162351001054,457.99249779991806,457.9925277000293,458.0162351001054,458.0162351001054,458.0162351001054,459.8848055000417,300,1,[1.8909489000216126],[1.890955900074914],712514,001,2024-11-14_16h04.43.786,intentional binding,2024.1.5,None,2024-11-14 16h04.47.895805 +0530,
0.4,400,unexp,6,6,78,1,459.9002282000147,,459.8854666000698,459.9002282000147,460.9006378999911,460.9006378999911,460.9006378999911,461.521331399912,space,0.6028697998262942,None,461.52250190009363,461.9359431667874,462.26703360001557,462.2371690000873,462.2372423000634,462.26703360001557,462.26703360001557,462.26703360001557,466.23533920012414,100,1,[3.99518910003826],[3.995197599986568],712514,001,2024-11-14_16h04.43.786,intentional binding,2024.1.5,None,2024-11-14 16h04.47.895805 +0530,
0.4,1000,exp,6,7,79,4,466.25087999994867,,466.23668380011804,466.25087999994867,467.25211340002716,467.25211340002716,467.25211340002716,467.87051560007967,space,0.6163788000121713,None,467.87133549991995,468.28480516659715,468.61663129995577,468.58578859991394,468.5858275000937,468.61663129995577,468.61663129995577,468.61663129995577,470.78577690012753,100,1,[2.1976431999355555],[2.1976588000543416],712514,001,2024-11-14_16h04.43.786,intentional binding,2024.1.5,None,2024-11-14 16h04.47.895805 +0530,
0.1,1000,exp,6,8,80,9,470.80065850005485,,470.78707560012117,470.80065850005485,471.8020492999349,471.8020492999349,471.8020492999349,473.20329839992337,space,1.393086199881509,None,473.2042056999635,473.31717826665067,,473.60264850012027,473.602675500093,473.6164172999561,473.6164172999561,473.6164172999561,476.2010194999166,100,1,[2.5970341998618096],[2.5970405999105424],712514,001,2024-11-14_16h04.43.786,intentional binding,2024.1.5,None,2024-11-14 16h04.47.895805 +0530,
0.1,1000,exp,6,9,81,6,476.2172060001176,,476.2016616000328,476.2172060001176,477.20195879996754,477.20195879996754,477.21842880011536,477.7369299000129,space,0.5309285998810083,None,477.73809590004385,477.8505406666702,,478.1079544001259,478.10797620005906,478.1329618000891,478.1329618000891,478.1329618000891,480.18512140004896,100,1,[2.0758989001624286],[2.0759080999996513],712514,001,2024-11-14_16h04.43.786,intentional binding,2024.1.5,None,2024-11-14 16h04.47.895805 +0530,
0.1,1000,exp,6,10,82,3,480.2006224000361,,480.1858067000285,480.2006224000361,481.20069720014,481.20069720014,481.20069720014,481.65165639994666,space,0.4390457000117749,None,481.652392399963,481.7682481667182,482.0842289000284,482.0556876999326,482.0557510999497,482.0842289000284,482.0842289000284,482.0842289000284,484.2685257999692,100,1,[2.2101625001523644],[2.210177200147882],712514,001,2024-11-14_16h04.43.786,intentional binding,2024.1.5,None,2024-11-14 16h04.47.895805 +0530,
0.7,1000,exp,6,11,83,5,484.2835754000116,,484.2692301000934,484.2835754000116,485.26677160011604,485.26677160011604,485.28347799996845,486.81838850001805,space,1.5452892000321299,None,486.819100700086,487.51821486658105,487.8500471999869,487.8166068000719,487.81666120002046,487.8500471999869,487.8500471999869,487.8500471999869,490.0354691001121,200,1,[2.2159705001395196],[2.215978299966082],712514,001,2024-11-14_16h04.43.786,intentional binding,2024.1.5,None,2024-11-14 16h04.47.895805 +0530,
0.1,1000,exp,7,0,84,3,490.05034830002114,,490.0360554000363,490.05034830002114,491.03517120005563,491.03517120005563,491.05179150006734,491.7532905000262,space,0.705229900078848,None,491.7542942999862,491.86797046667584,,492.1383640000131,492.13845190010034,492.1676745999139,492.1676745999139,492.1676745999139,494.4011280001141,100,1,[2.2582640000618994],[2.258270800113678],712514,001,2024-11-14_16h04.43.786,intentional binding,2024.1.5,None,2024-11-14 16h04.47.895805 +0530,
0.7,1000,exp,7,1,85,8,494.4169505001046,,494.40175319998525,494.4169505001046,495.4019454000518,495.4019454000518,495.4192141001113,496.15386810014024,space,0.74024170008488,None,496.1548907000106,496.8687203666816,,497.1464815000072,497.1465251999907,497.18384249997325,497.18384249997325,497.18384249997325,499.3353724000044,300,1,[2.186744299950078],[2.186753199901432],712514,001,2024-11-14_16h04.43.786,intentional binding,2024.1.5,None,2024-11-14 16h04.47.895805 +0530,
0.1,400,unexp,7,2,86,0,499.35048380005173,,499.33610920002684,499.35048380005173,500.3521732999943,500.3521732999943,500.3521732999943,500.8535933000967,space,0.4879477999638766,None,500.85480420012027,500.96815426677153,501.30025720014237,501.27091399999335,501.2709979999345,501.30025720014237,501.30025720014237,501.30025720014237,503.2842711999547,100,1,[2.0115753000136465],[2.0115809000562876],712514,001,2024-11-14_16h04.43.786,intentional binding,2024.1.5,None,2024-11-14 16h04.47.895805 +0530,
0.1,1000,exp,7,3,87,6,503.30042949994095,,503.2849457000848,503.30042949994095,504.30020279996097,504.30020279996097,504.30020279996097,505.2023434001021,space,0.900358600076288,None,505.2027263001073,505.31761666672924,505.6329580999445,505.610970800044,505.6109929999802,505.6329580999445,505.6329580999445,505.6329580999445,507.9687648001127,200,1,[2.3563369000330567],[2.3563471001107246],712514,001,2024-11-14_16h04.43.786,intentional binding,2024.1.5,None,2024-11-14 16h04.47.895805 +0530,
0.1,1000,exp,7,4,88,9,507.983739099931,,507.96939769992605,507.983739099931,508.98417980014347,508.98417980014347,508.98417980014347,509.46832320000976,space,0.47369800019077957,None,509.4688276001252,509.58432436670796,509.9000496000517,509.88224530010484,509.8823047999758,509.9000496000517,509.9000496000517,509.9000496000517,512.4023021000903,100,1,[2.518463799962774],[2.518471600022167],712514,001,2024-11-14_16h04.43.786,intentional binding,2024.1.5,None,2024-11-14 16h04.47.895805 +0530,
0.7,1000,exp,7,5,89,11,512.4173246000428,,512.4031118999701,512.4173246000428,513.4027929001022,513.4027929001022,513.4198054000735,513.8047037001234,space,0.39909580000676215,None,513.8057673999574,514.5170874666112,514.8332255999558,514.8120349999517,514.8120669999626,514.8332255999558,514.8332255999558,514.8332255999558,517.4191612999421,400,1,[2.6053718000184745],[2.6053794999606907],712514,001,2024-11-14_16h04.43.786,intentional binding,2024.1.5,None,2024-11-14 16h04.47.895805 +0530,
0.7,400,unexp,7,6,90,2,517.4346008999273,,517.4197933000978,517.4346008999273,518.4342275001109,518.4342275001109,518.4342275001109,520.5722006000578,space,2.134021299891174,None,520.573236499913,521.2855279667458,521.6176503999159,521.5817414999474,521.5818088001106,521.6176503999159,521.6176503999159,521.6176503999159,526.0858970999252,200,1,[4.50043259980157],[4.500454499851912],712514,001,2024-11-14_16h04.43.786,intentional binding,2024.1.5,None,2024-11-14 16h04.47.895805 +0530,
0.4,1000,exp,7,7,91,10,526.1021283001173,,526.0883806999773,526.1021283001173,527.1021905001253,527.1021905001253,527.1021905001253,528.0051353999879,space,0.8957597000990063,None,528.0062387001235,528.4192055666974,528.7345086999703,528.711181400111,528.7112271001097,528.7345086999703,528.7345086999703,528.7345086999703,530.7202286000829,100,1,[2.0059890998527408],[2.0060033998452127],712514,001,2024-11-14_16h04.43.786,intentional binding,2024.1.5,None,2024-11-14 16h04.47.895805 +0530,
0.4,1000,exp,7,8,92,4,530.7350574999582,,530.7220147000626,530.7350574999582,531.7358216000721,531.7358216000721,531.7358216000721,533.3207430001348,space,1.5760854999534786,None,533.3216256001033,533.7364878666742,534.0675453001168,534.0313673000783,534.0314299000893,534.0675453001168,534.0675453001168,534.0675453001168,535.921459400095,100,1,[1.887487799860537],[1.887503899866715],712514,001,2024-11-14_16h04.43.786,intentional binding,2024.1.5,None,2024-11-14 16h04.47.895805 +0530,
0.4,400,unexp,7,9,93,1,535.935421400005,,535.9233639999293,535.935421400005,536.9365157999564,536.9365157999564,536.9365157999564,538.6545229000039,space,1.7109735000412911,None,538.655570599949,539.068987566807,539.4015879000071,539.3612323999405,539.3612760000397,539.4015879000071,539.4015879000071,539.4015879000071,541.221783899935,200,1,[1.8577622999437153],[1.857781199971214],712514,001,2024-11-14_16h04.43.786,intentional binding,2024.1.5,None,2024-11-14 16h04.47.895805 +0530,
0.4,1000,exp,7,10,94,7,541.2353751999326,,541.2232787001412,541.2353751999326,542.2359114999417,542.2359114999417,542.2359114999417,543.0713573999237,space,0.8232797998934984,None,543.0722620000597,543.4862153665783,543.8171666001435,543.7816200000234,543.7816709999461,543.8171666001435,543.8171666001435,543.8171666001435,546.9037866001017,200,1,[3.1192775999661535],[3.11929289996624],712514,001,2024-11-14_16h04.43.786,intentional binding,2024.1.5,None,2024-11-14 16h04.47.895805 +0530,
0.7,1000,exp,7,11,95,5,546.9189055000897,,546.905309200054,546.9189055000897,547.9192858999595,547.9192858999595,547.9192858999595,548.6551395000424,space,0.7226879999507219,None,548.656047699973,549.3697106666552,549.701075799996,549.6618405999616,549.661890400108,549.701075799996,549.701075799996,549.701075799996,552.4687292999588,200,1,[2.804332499857992],[2.8043428999371827],712514,001,2024-11-14_16h04.43.786,intentional binding,2024.1.5,None,2024-11-14 16h04.47.895805 +0530,
0.7,1000,exp,8,0,96,11,552.4838443999179,,552.4698830000125,552.4838443999179,553.4692685999908,553.4692685999908,553.4858796999324,555.4518250001129,space,1.9799247002229095,None,555.4525701999664,556.1672419666468,556.4846942999866,556.4547614001203,556.4548120999243,556.4846942999866,556.4846942999866,556.4846942999866,558.2196311000735,300,1,[1.761941600125283],[1.7619573001284152],712514,001,2024-11-14_16h04.43.786,intentional binding,2024.1.5,None,2024-11-14 16h04.47.895805 +0530,
0.4,1000,exp,8,1,97,10,558.2363887999672,,558.221157599939,558.2363887999672,559.2362896001432,559.2362896001432,559.2362896001432,561.605969700031,space,2.3670997000299394,None,561.6068593999371,562.0195634666054,562.3509780000895,562.3178819001187,562.3179371999577,562.3509780000895,562.3509780000895,562.3509780000895,566.3549436000176,200,1,[4.034173400141299],[4.0341924000531435],712514,001,2024-11-14_16h04.43.786,intentional binding,2024.1.5,None,2024-11-14 16h04.47.895805 +0530,
0.4,1000,exp,8,2,98,4,566.3686703999992,,566.3564331999514,566.3686703999992,567.3696383000351,567.3696383000351,567.3696383000351,568.2544335999992,space,0.8727280001621693,None,568.25546330004,568.6696462666771,569.0012423999142,568.9614989999682,568.9615718000568,569.0012423999142,569.0012423999142,569.0012423999142,570.7520185001194,100,1,[1.7875367999076843],[1.7875526000279933],712514,001,2024-11-14_16h04.43.786,intentional binding,2024.1.5,None,2024-11-14 16h04.47.895805 +0530,
0.4,1000,exp,8,3,99,7,570.7686880999245,,570.7536840001121,570.7686880999245,571.7525474000722,571.7525474000722,571.770041400101,573.2718330000062,space,1.5163884998764843,None,573.2728353999555,573.6860881667274,574.0181225000415,573.9817435001023,573.9818331999704,574.0181225000415,574.0181225000415,574.0181225000415,578.6209853999317,100,1,[4.636395700043067],[4.636412900174037],712514,001,2024-11-14_16h04.43.786,intentional binding,2024.1.5,None,2024-11-14 16h04.47.895805 +0530,
0.1,1000,exp,8,4,100,6,578.6354477999266,,578.6224710000679,578.6354477999266,579.6363629000261,579.6363629000261,579.6363629000261,583.372555000009,space,3.7333176999818534,None,583.3735517999157,583.4861260667133,583.817441200139,583.7821569000371,583.7822332999203,583.817441200139,583.817441200139,583.817441200139,585.9878263999708,100,1,[2.201947499997914],[2.2019678000360727],712514,001,2024-11-14_16h04.43.786,intentional binding,2024.1.5,None,2024-11-14 16h04.47.895805 +0530,
0.4,400,unexp,8,5,101,1,586.002024400048,,585.9895746000111,586.002024400048,587.0030062999576,587.0030062999576,587.0030062999576,587.7888825000264,space,0.7792897999752313,None,587.7898657000624,588.2029904667909,588.534334700089,588.5019857999869,588.5020391999278,588.534334700089,588.534334700089,588.534334700089,590.7855029001366,200,1,[2.280753599945456],[2.280768899945542],712514,001,2024-11-14_16h04.43.786,intentional binding,2024.1.5,None,2024-11-14 16h04.47.895805 +0530,
0.1,1000,exp,8,6,102,9,590.8021231999155,,590.7870245000813,590.8021231999155,591.7859283001162,591.7859283001162,591.8025219999254,592.6216206001118,space,0.8191243000328541,None,592.622859199997,592.7364817667442,593.0676397001371,593.0309560000896,593.0309991000686,593.0676397001371,593.0676397001371,593.0676397001371,594.9698924000841,100,1,[1.9351703999564052],[1.9351882999762893],712514,001,2024-11-14_16h04.43.786,intentional binding,2024.1.5,None,2024-11-14 16h04.47.895805 +0530,
0.7,1000,exp,8,7,103,8,594.9857457000762,,594.9715474001132,594.9857457000762,595.9696838001255,595.9696838001255,595.9862903000321,596.6717417999171,space,0.68927409988828,None,596.6726122000255,597.3860948666154,597.7179719000123,597.6814431000967,597.681510000024,597.7179719000123,597.7179719000123,597.7179719000123,599.6025064999703,200,1,[1.9175239999312907],[1.917539200047031],712514,001,2024-11-14_16h04.43.786,intentional binding,2024.1.5,None,2024-11-14 16h04.47.895805 +0530,
0.1,400,unexp,8,8,104,0,599.6186778000556,,599.6040787000675,599.6186778000556,600.6025398001075,600.6025398001075,600.6193866000976,601.1730331000872,space,0.5597997000440955,None,601.1739103000145,601.2863620666942,601.6181157000829,601.5818867001217,601.5819630001206,601.6181157000829,601.6181157000829,601.6181157000829,604.2378461000044,100,1,[2.6526409999933094],[2.652656599879265],712514,001,2024-11-14_16h04.43.786,intentional binding,2024.1.5,None,2024-11-14 16h04.47.895805 +0530,
0.7,1000,exp,8,9,105,5,604.2521951999515,,604.2396404000465,604.2521951999515,605.2530588000081,605.2530588000081,605.2530588000081,605.8551147999242,space,0.5963715000543743,None,605.8561975001357,606.5696650667271,606.8841604001354,606.8614714001305,606.8615169001278,606.8841604001354,606.8841604001354,606.8841604001354,609.0691386000253,200,1,[2.2047220999374986],[2.204737199936062],712514,001,2024-11-14_16h04.43.786,intentional binding,2024.1.5,None,2024-11-14 16h04.47.895805 +0530,
0.1,1000,exp,8,10,106,3,609.0857673999853,,609.0706909000874,609.0857673999853,610.0693558999337,610.0693558999337,610.0864613999147,610.8724136000965,space,0.7962166999932379,None,610.8733455999754,610.9863882666143,611.3188823000528,611.2812020001002,611.2812523001339,611.3188823000528,611.3188823000528,611.3188823000528,613.3050186999608,100,1,[2.020140999928117],[2.0201578000560403],712514,001,2024-11-14_16h04.43.786,intentional binding,2024.1.5,None,2024-11-14 16h04.47.895805 +0530,
0.7,400,unexp,8,11,107,2,613.3197027000133,,613.306559599936,613.3197027000133,614.3200596000534,614.3200596000534,614.3200596000534,615.3720144999679,space,1.0446522000711411,None,615.3728738001082,616.0864520667276,616.4178492000792,616.3821821000893,616.3822866999544,616.4178492000792,616.4178492000792,616.4178492000792,618.7688589000609,300,1,[2.3835312000010163],[2.383546399883926],712514,001,2024-11-14_16h04.43.786,intentional binding,2024.1.5,None,2024-11-14 16h04.47.895805 +0530,
0.7,1000,exp,9,0,108,5,618.7852195999585,,618.7704292000271,618.7852195999585,619.769299400039,619.769299400039,619.7858208001126,620.622212599963,space,0.849889500066638,None,620.6231992000248,621.3362378667264,621.6681317000184,621.6320400999393,621.632099899929,621.6681317000184,621.6681317000184,621.6681317000184,625.3868492001202,300,1,[3.752109499881044],[3.7521244001109153],712514,001,2024-11-14_16h04.43.786,intentional binding,2024.1.5,None,2024-11-14 16h04.47.895805 +0530,
0.1,400,unexp,9,1,109,0,625.4021723000333,,625.3884362999815,625.4021723000333,626.4033282999881,626.4033282999881,626.4033282999881,627.1889233000111,space,0.7770765000022948,None,627.1898267001379,627.3029642666845,627.6343779999297,627.6017972000409,627.6018650000915,627.6343779999297,627.6343779999297,627.6343779999297,629.7523177000694,100,1,[2.147657300112769],[2.1476726999972016],712514,001,2024-11-14_16h04.43.786,intentional binding,2024.1.5,None,2024-11-14 16h04.47.895805 +0530,
0.7,1000,exp,9,2,110,8,629.7691500999499,,629.75400299998,629.7691500999499,630.7527135999408,630.7527135999408,630.7696758999955,631.9054535999894,space,1.14712639991194,None,631.9067844001111,632.6197612668077,632.9509471999481,632.9115484999493,632.9115953999572,632.9509471999481,632.9509471999481,632.9509471999481,635.1540377000347,200,1,[2.239588600117713],[2.239603500114754],712514,001,2024-11-14_16h04.43.786,intentional binding,2024.1.5,None,2024-11-14 16h04.47.895805 +0530,
0.1,1000,exp,9,3,111,3,635.1692053999286,,635.1555711000692,635.1692053999286,636.1696134000085,636.1696134000085,636.1696134000085,636.8218062000815,space,0.6414888999424875,None,636.8228505000006,636.9367094666852,637.2677669001278,637.2318478999659,637.2319157000165,637.2677669001278,637.2677669001278,637.2677669001278,639.4192161001265,100,1,[2.1837228999938816],[2.1837380998767912],712514,001,2024-11-14_16h04.43.786,intentional binding,2024.1.5,None,2024-11-14 16h04.47.895805 +0530,
0.4,400,unexp,9,4,112,1,639.4355192000512,,639.420744900126,639.4355192000512,640.420167000033,640.420167000033,640.4360476001166,641.0720272001345,space,0.644946499960497,None,641.0730040001217,641.4862589666775,641.8180084000342,641.7814303000923,641.781480200123,641.8180084000342,641.8180084000342,641.8180084000342,644.3034262000583,100,1,[2.5184589999262244],[2.518474099924788],712514,001,2024-11-14_16h04.43.786,intentional binding,2024.1.5,None,2024-11-14 16h04.47.895805 +0530,
0.1,1000,exp,9,5,113,6,644.3188764001243,,644.3049455999862,644.3188764001243,645.3196135000326,645.3196135000326,645.3196135000326,645.9378488999791,space,0.61163379997015,None,645.9387682001106,646.0528468667219,646.384520099964,646.3520849000197,646.3521390999667,646.384520099964,646.384520099964,646.384520099964,648.4863024000078,100,1,[2.1311695999465883],[2.131184699945152],712514,001,2024-11-14_16h04.43.786,intentional binding,2024.1.5,None,2024-11-14 16h04.47.895805 +0530,
0.1,1000,exp,9,6,114,9,648.5032188000623,,648.488034500042,648.5032188000623,649.5026331001427,649.5026331001427,649.5026331001427,650.1222922001034,space,0.6096763000823557,None,650.1232201999519,650.2363054666823,650.5520983999595,650.5373627000954,650.5374505000655,650.5520983999595,650.5520983999595,650.5520983999595,652.7865691001061,100,1,[2.246319300029427],[2.2463366999290884],712514,001,2024-11-14_16h04.43.786,intentional binding,2024.1.5,None,2024-11-14 16h04.47.895805 +0530,
0.4,1000,exp,9,7,115,10,652.8022316000424,,652.7882513001096,652.8022316000424,653.8033050999511,653.8033050999511,653.8033050999511,654.338010000065,space,0.5211177000310272,None,654.338888600003,654.7527532666611,655.0841195001267,655.0515554000158,655.0516280999873,655.0841195001267,655.0841195001267,655.0841195001267,657.7715725000016,200,1,[2.716745999874547],[2.716762299882248],712514,001,2024-11-14_16h04.43.786,intentional binding,2024.1.5,None,2024-11-14 16h04.47.895805 +0530,
0.7,1000,exp,9,8,116,11,657.7857365999371,,657.7731536999345,657.7857365999371,658.7860093000345,658.7860093000345,658.7860093000345,659.3234598999843,space,0.5350204999558628,None,659.3244588000234,660.0360624667412,660.3679514999967,660.3315697999205,660.3316383000929,660.3679514999967,660.3679514999967,660.3679514999967,662.6357187000103,400,1,[2.300596100045368],[2.3006111001595855],712514,001,2024-11-14_16h04.43.786,intentional binding,2024.1.5,None,2024-11-14 16h04.47.895805 +0530,
0.4,1000,exp,9,9,117,4,662.6524356999435,,662.6373561001383,662.6524356999435,663.6360381001141,663.6360381001141,663.652927499963,664.2719586999156,space,0.622626299969852,None,664.2729160999879,664.6866928667916,665.0179415000603,664.9813270000741,664.981390699977,665.0179415000603,665.0179415000603,665.0179415000603,667.7872474999167,100,1,[2.8025837999302894],[2.8025990000460297],712514,001,2024-11-14_16h04.43.786,intentional binding,2024.1.5,None,2024-11-14 16h04.47.895805 +0530,
0.7,400,unexp,9,10,118,2,667.8035434000194,,667.7887832000852,667.8035434000194,668.8032025999855,668.8032025999855,668.8032025999855,669.7543325999286,space,0.9340236000716686,None,669.755415200023,670.4694285665794,670.7849592000712,670.761530800024,670.7615783000365,670.7849592000712,670.7849592000712,670.7849592000712,672.6709191000555,300,1,[1.907057600095868],[1.9070719999726862],712514,001,2024-11-14_16h04.43.786,intentional binding,2024.1.5,None,2024-11-14 16h04.47.895805 +0530,
0.4,1000,exp,9,11,119,7,672.685675600078,,672.6722573000006,672.685675600078,673.6864765000064,673.6864765000064,673.6864765000064,674.2050077000167,space,0.509533999953419,None,674.205882600043,674.6196438666123,674.9512034999207,674.9166252000723,674.9166834000498,674.9512034999207,674.9512034999207,674.9512034999207,676.8206104999408,200,1,[1.9003980001434684],[1.9004124000202864],712514,001,2024-11-14_16h04.43.786,intentional binding,2024.1.5,None,2024-11-14 16h04.47.895805 +0530,
0.7,400,unexp,10,0,120,2,676.8361488999799,,676.822118600132,676.8361488999799,677.836616500048,677.836616500048,677.836616500048,678.8550319001079,space,1.0082620000466704,None,678.8560647999402,679.5695289667385,679.884370499989,679.8613545999397,679.8613982000388,679.884370499989,679.884370499989,679.884370499989,681.5707151000388,200,1,[1.7068424001336098],[1.7068577001336962],712514,001,2024-11-14_16h04.43.786,intentional binding,2024.1.5,None,2024-11-14 16h04.47.895805 +0530,
0.7,1000,exp,10,1,121,8,681.5858291001059,,681.5722912999336,681.5858291001059,682.5858368000481,682.5858368000481,682.5858368000481,683.2884613000788,space,0.6858528999146074,None,683.2894846000709,684.002890666776,684.3345385000575,684.3020124000032,684.3020977999549,684.3345385000575,684.3345385000575,684.3345385000575,686.702299100114,200,1,[2.3970804000273347],[2.397095900028944],712514,001,2024-11-14_16h04.43.786,intentional binding,2024.1.5,None,2024-11-14 16h04.47.895805 +0530,
0.7,1000,exp,10,2,122,11,686.719087400008,,686.7039000999648,686.719087400008,687.7034644000232,687.7034644000232,687.7196116999257,688.2718927999958,space,0.5620554001070559,None,688.2727527001407,688.9862386666393,689.3180176999886,689.2858331000898,689.2858953999821,689.3180176999886,689.3180176999886,689.3180176999886,691.80264060013,100,1,[2.514009000035003],[2.5140243000350893],712514,001,2024-11-14_16h04.43.786,intentional binding,2024.1.5,None,2024-11-14 16h04.47.895805 +0530,
0.1,1000,exp,10,3,123,6,691.8189650999848,,691.8043500001077,691.8189650999848,692.8037700999994,692.8037700999994,692.820583499968,693.3055307001341,space,0.49860849999822676,None,693.3065148999449,693.41984886659,693.7343588999938,693.711137900129,693.711183300009,693.7343588999938,693.7343588999938,693.7343588999938,695.5063233000692,100,1,[1.792262400034815],[1.792280999943614],712514,001,2024-11-14_16h04.43.786,intentional binding,2024.1.5,None,2024-11-14 16h04.47.895805 +0530,
0.1,1000,exp,10,4,124,3,695.5197553001344,,695.5080947000533,695.5197553001344,696.5200158001389,696.5200158001389,696.5200158001389,697.2056044000201,space,0.6725710998289287,None,697.2066150000319,697.3200795667401,697.651499300031,697.6114586999174,697.6115057000425,697.651499300031,697.651499300031,697.651499300031,699.7199969000649,100,1,[2.105714299948886],[2.1057289999444038],712514,001,2024-11-14_16h04.43.786,intentional binding,2024.1.5,None,2024-11-14 16h04.47.895805 +0530,
0.4,1000,exp,10,5,125,7,699.736309299944,,699.7215963001363,699.736309299944,700.7361530000344,700.7361530000344,700.7361530000344,701.4547681999393,space,0.703757300041616,None,701.4557612000499,701.8696831667951,702.1845146999694,702.1618691999465,702.1619192000944,702.1845146999694,702.1845146999694,702.1845146999694,704.0706080999225,200,1,[1.9059705000836402],[1.9059854000806808],712514,001,2024-11-14_16h04.43.786,intentional binding,2024.1.5,None,2024-11-14 16h04.47.895805 +0530,
0.1,400,unexp,10,6,126,0,704.085579900071,,704.0720512999687,704.085579900071,705.0858662000392,705.0858662000392,705.0858662000392,705.6718905000016,space,0.574811999918893,None,705.6729240000714,705.7861365667234,706.1180082999635,706.0816552001052,706.0818986999802,706.1180082999635,706.1180082999635,706.1180082999635,708.5532460999675,200,1,[2.4686902000103146],[2.4687067999038845],712514,001,2024-11-14_16h04.43.786,intentional binding,2024.1.5,None,2024-11-14 16h04.47.895805 +0530,
0.4,1000,exp,10,7,127,4,708.5688122999854,,708.5547359001357,708.5688122999854,709.5692658999469,709.5692658999469,709.5692658999469,710.3385387000162,space,0.7519507999531925,None,710.3397174999118,710.7528014667953,711.0845315000042,711.0524001999293,711.0526465999428,711.0845315000042,711.0845315000042,711.0845315000042,713.3529831999913,300,1,[2.297371899941936],[2.2973837999161333],712514,001,2024-11-14_16h04.43.786,intentional binding,2024.1.5,None,2024-11-14 16h04.47.895805 +0530,
0.4,400,unexp,10,8,128,1,713.3685796000063,,713.3541856000666,713.3685796000063,714.3534744000062,714.3534744000062,714.3705706999172,714.905667199986,space,0.5493101000320166,None,714.9066806000192,715.3208733667309,715.6516193000134,715.6115965999197,715.6117052999325,715.6516193000134,715.6516193000134,715.6516193000134,717.7885831999592,300,1,[2.17414000001736],[2.1741567000281066],712514,001,2024-11-14_16h04.43.786,intentional binding,2024.1.5,None,2024-11-14 16h04.47.895805 +0530,
0.4,1000,exp,10,9,129,10,717.8028691001236,,717.7901409999467,717.8028691001236,718.8031599000096,718.8031599000096,718.8031599000096,719.304971500067,space,0.48578669992275536,None,719.3059549001046,719.7201916666857,720.0515481000766,720.0115702000912,720.0116181001067,720.0515481000766,720.0515481000766,720.0515481000766,722.3195718999486,200,1,[2.305042700143531],[2.3050601999275386],712514,001,2024-11-14_16h04.43.786,intentional binding,2024.1.5,None,2024-11-14 16h04.47.895805 +0530,
0.1,1000,exp,10,10,130,9,722.336062300019,,722.3212005000096,722.336062300019,723.3199132001027,723.3199132001027,723.3375641000457,724.004999200115,space,0.6715309000574052,None,724.0059692000505,724.1195215667287,724.4352683001198,724.4113547999877,724.411405999912,724.4352683001198,724.4352683001198,724.4352683001198,726.4364678000566,100,1,[2.022649799939245],[2.0226588000077754],712514,001,2024-11-14_16h04.43.786,intentional binding,2024.1.5,None,2024-11-14 16h04.47.895805 +0530,
0.7,1000,exp,10,11,131,5,726.4507212999742,,726.4370548001025,726.4507212999742,727.4368344999384,727.4368344999384,727.4534001001157,728.3217843000311,space,0.8693914001341909,None,728.3226692001335,729.0343085667739,729.3835054999217,729.3647537000943,729.3647801000625,729.3835054999217,729.3835054999217,729.3835054999217,731.5207056000363,200,1,[2.153773199999705],[2.153791999910027],712514,001,2024-11-14_16h04.43.786,intentional binding,2024.1.5,None,2024-11-14 16h04.47.895805 +0530,
0.7,1000,exp,11,0,132,5,731.5379812999163,,731.522215800127,731.5379812999163,732.5349669000134,732.5349669000134,732.5519656999968,733.1386120999232,space,0.5885253001470119,None,733.1394887999631,733.853522266789,734.18507519993,734.1517326000612,734.15177830006,734.18507519993,734.18507519993,734.18507519993,737.3196882000193,300,1,[3.164991700090468],[3.1650068999733776],712514,001,2024-11-14_16h04.43.786,intentional binding,2024.1.5,None,2024-11-14 16h04.47.895805 +0530,
0.1,400,unexp,11,1,133,0,737.336265000049,,737.3213079001289,737.336265000049,738.3196318999398,738.3196318999398,738.3358320000116,738.9395522000268,space,0.6129987000022084,None,738.9404335001018,739.05339306669,739.3848777001258,739.3515826000366,739.3516407001298,739.3848777001258,739.3848777001258,739.3848777001258,741.5524699999951,100,1,[2.197611700044945],[2.197626299923286],712514,001,2024-11-14_16h04.43.786,intentional binding,2024.1.5,None,2024-11-14 16h04.47.895805 +0530,
0.7,1000,exp,11,2,134,11,741.5691206001211,,741.5540428999811,741.5691206001211,742.5531188000459,742.5531188000459,742.5696097000036,743.2058000001125,space,0.6464990000240505,None,743.2066786000505,743.9200212667386,744.2518110999372,744.2115070999134,744.2115541000385,744.2518110999372,744.2518110999372,744.2518110999372,746.1399274000432,400,1,[1.9251389999408275],[1.925155899953097],712514,001,2024-11-14_16h04.43.786,intentional binding,2024.1.5,None,2024-11-14 16h04.47.895805 +0530,
0.7,1000,exp,11,3,135,8,746.1528449999169,,746.141419300111,746.1528449999169,747.153319099918,747.153319099918,747.153319099918,748.2386161000468,space,1.07211870001629,None,748.2395673999563,748.9540901666662,749.284996900009,749.2519604000263,749.2520137000829,749.284996900009,749.284996900009,749.284996900009,752.4211317000445,200,1,[3.1665729999076575],[3.16659009992145],712514,001,2024-11-14_16h04.43.786,intentional binding,2024.1.5,None,2024-11-14 16h04.47.895805 +0530,
0.4,400,unexp,11,4,136,1,752.4358149999753,,752.4227197000291,752.4358149999753,753.4368680000771,753.4368680000771,753.4368680000771,754.3552743999753,space,0.9075726000592113,None,754.3563518000301,754.7696891667476,755.1001832999755,755.0743750000838,755.0743955001235,755.1001832999755,755.1001832999755,755.1001832999755,760.4698707000352,300,1,[5.393456500023603],[5.393474200041965],712514,001,2024-11-14_16h04.43.786,intentional binding,2024.1.5,None,2024-11-14 16h04.47.895805 +0530,
0.4,1000,exp,11,5,137,4,760.4860471999273,,760.4715106999502,760.4860471999273,761.4699184999336,761.4699184999336,761.4865467001218,764.1223271000199,space,2.6393013999331743,None,764.1232901001349,764.5365389667606,764.8681411000434,764.8310336000286,764.8310887999833,764.8681411000434,764.8681411000434,764.8681411000434,768.6032619001344,200,1,[3.7691254999954253],[3.7691434000153095],712514,001,2024-11-14_16h04.43.786,intentional binding,2024.1.5,None,2024-11-14 16h04.47.895805 +0530,
0.1,1000,exp,11,6,138,6,768.6200508999173,,768.6049792999402,768.6200508999173,769.6201440999284,769.6201440999284,769.6201440999284,769.9548951000907,space,0.31731409998610616,None,769.9558326001279,770.0700282666987,770.385209799977,770.3612579000182,770.3613011001144,770.385209799977,770.385209799977,770.385209799977,772.3030572999269,100,1,[1.9390851999633014],[1.939102099975571],712514,001,2024-11-14_16h04.43.786,intentional binding,2024.1.5,None,2024-11-14 16h04.47.895805 +0530,
0.4,1000,exp,11,7,139,10,772.3196926000528,,772.3049051000271,772.3196926000528,773.303212299943,773.303212299943,773.3200211001094,773.7889117000159,space,0.48252939991652966,None,773.7898154000286,774.2036378665982,774.535087000113,774.5016819001175,774.5017490999307,774.535087000113,774.535087000113,774.535087000113,777.0040092999116,200,1,[2.499081099871546],[2.499097199877724],712514,001,2024-11-14_16h04.43.786,intentional binding,2024.1.5,None,2024-11-14 16h04.47.895805 +0530,
0.1,1000,exp,11,8,140,3,777.0191228000913,,777.0055776999798,777.0191228000913,778.0204968999606,778.0204968999606,778.0204968999606,778.7219448001124,space,0.6906554999295622,None,778.7227888000198,778.8372707667916,779.1678208999801,779.1313003001269,779.1313402000815,779.1678208999801,779.1678208999801,779.1678208999801,781.0363056000788,100,1,[1.9018906999845058],[1.901906100101769],712514,001,2024-11-14_16h04.43.786,intentional binding,2024.1.5,None,2024-11-14 16h04.47.895805 +0530,
0.4,1000,exp,11,9,141,7,781.0530322999693,,781.0378779000603,781.0530322999693,782.0364888000768,782.0364888000768,782.053256599931,783.1226951999124,space,1.0689871001522988,None,783.1235496001318,783.5363464668083,783.8680692999624,783.8315203001257,783.8315656001214,783.8680692999624,783.8680692999624,783.8680692999624,786.2037758999504,100,1,[2.3686695999931544],[2.36868690000847],712514,001,2024-11-14_16h04.43.786,intentional binding,2024.1.5,None,2024-11-14 16h04.47.895805 +0530,
0.1,1000,exp,11,10,142,9,786.2196762000676,,786.205455099931,786.2196762000676,787.2201175000519,787.2201175000519,787.2201175000519,787.7382825999521,space,0.5126161999069154,None,787.7391896999907,787.8533788666284,788.1850862000138,788.1511770000216,788.1512438999489,788.1850862000138,788.1850862000138,788.1850862000138,790.2539143001195,100,1,[2.099788799881935],[2.0998064999002963],712514,001,2024-11-14_16h04.43.786,intentional binding,2024.1.5,None,2024-11-14 16h04.47.895805 +0530,
0.7,400,unexp,11,11,143,2,790.2696070999373,,790.2556527999695,790.2696070999373,791.2694902000949,791.2694902000949,791.2694902000949,791.9727340999525,space,0.6993552998173982,None,791.9736673000734,792.6874607667016,793.0178479999304,792.9813818000257,792.981470100116,793.0178479999304,793.0178479999304,793.0178479999304,795.3062142999843,200,1,[2.3214589999988675],[2.3214773000217974],712514,001,2024-11-14_16h04.43.786,intentional binding,2024.1.5,None,2024-11-14 16h04.47.895805 +0530,
0.1,1000,exp,12,0,144,6,795.3196497999597,,795.3079697999638,795.3196497999597,796.3194625000469,796.3194625000469,796.3194625000469,797.0568897000048,space,0.7343665000516921,None,797.0578016999643,797.1699155667486,797.5011058000382,797.461683300091,797.461729099974,797.5011058000382,797.5011058000382,797.5011058000382,799.9035324999131,100,1,[2.4388121000956744],[2.4388268999755383],712514,001,2024-11-14_16h04.43.786,intentional binding,2024.1.5,None,2024-11-14 16h04.47.895805 +0530,
0.4,400,unexp,12,1,145,1,799.9200371999759,,799.905108399922,799.9200371999759,800.9034746000543,800.9034746000543,800.9197925000917,801.4220481999218,space,0.5068441999610513,None,801.422951699933,801.8366701666421,802.1680385000072,802.1311389999464,802.1311854000669,802.1680385000072,802.1680385000072,802.1680385000072,804.1874653999694,200,1,[2.053046500077471],[2.053065200103447],712514,001,2024-11-14_16h04.43.786,intentional binding,2024.1.5,None,2024-11-14 16h04.47.895805 +0530,
0.7,400,unexp,12,2,146,2,804.20267160004,,804.1889750999399,804.20267160004,805.2034740000963,805.2034740000963,805.2034740000963,805.789535399992,space,0.5822751999367028,None,805.7905566000845,806.503608966774,806.8348153000697,806.8019381000195,806.8019950999878,806.8348153000697,806.8348153000697,806.8348153000697,808.719401899958,300,1,[1.9144186000339687],[1.914433600148186],712514,001,2024-11-14_16h04.43.786,intentional binding,2024.1.5,None,2024-11-14 16h04.47.895805 +0530,
0.7,1000,exp,12,3,147,11,808.7357314000838,,808.7209087000228,808.7357314000838,809.7200518001337,809.7200518001337,809.7366887000389,810.1890243000817,space,0.46355050010606647,None,810.1899018001277,810.9036340667556,811.2348480999935,811.2022462000605,811.2023008000106,811.2348480999935,811.2348480999935,811.2348480999935,813.0191069000866,400,1,[1.814851300092414],[1.8148580000270158],712514,001,2024-11-14_16h04.43.786,intentional binding,2024.1.5,None,2024-11-14 16h04.47.895805 +0530,
0.1,1000,exp,12,4,148,9,813.0348346000537,,813.0196935001295,813.0348346000537,814.0198212000541,814.0198212000541,814.0366243000608,815.105935000116,space,1.0798388998955488,None,815.1069082999602,815.2213193667742,815.5518309001345,815.5113303000107,815.5113731001038,815.5518309001345,815.5518309001345,815.5518309001345,818.5365812000819,200,1,[3.022450199816376],[3.022465599933639],712514,001,2024-11-14_16h04.43.786,intentional binding,2024.1.5,None,2024-11-14 16h04.47.895805 +0530,
0.7,1000,exp,12,5,149,8,818.5532987001352,,818.538243399933,818.5532987001352,819.5366790001281,819.5366790001281,819.5531331000384,820.0562293000985,space,0.5163781000301242,None,820.0571409999393,820.7699298666014,821.0849448000081,821.061647699913,821.0616945999209,821.0849448000081,821.0849448000081,821.0849448000081,822.9051264000591,300,1,[1.8406561999581754],[1.8406724999658763],712514,001,2024-11-14_16h04.43.786,intentional binding,2024.1.5,None,2024-11-14 16h04.47.895805 +0530,
0.4,1000,exp,12,6,150,10,822.9192715000827,,822.9066286000889,822.9192715000827,823.919891100144,823.919891100144,823.919891100144,824.6387330999132,space,0.7048094999045134,None,824.6395873001311,825.0532357667728,825.3855767999776,825.3515665000305,825.3516097001266,825.3855767999776,825.3855767999776,825.3855767999776,827.8209871000145,200,1,[2.4662965000607073],[2.46631189994514],712514,001,2024-11-14_16h04.43.786,intentional binding,2024.1.5,None,2024-11-14 16h04.47.895805 +0530,
0.7,1000,exp,12,7,151,5,827.8361683001276,,827.8223089999519,827.8361683001276,828.8367815001402,828.8367815001402,828.8367815001402,829.5731774000451,space,0.7306069999467582,None,829.5741826000158,830.286689066623,830.6182007999159,830.5818274000194,830.5818670000881,830.6182007999159,830.6182007999159,830.6182007999159,834.0061808999162,400,1,[3.420827800175175],[3.4208440999500453],712514,001,2024-11-14_16h04.43.786,intentional binding,2024.1.5,None,2024-11-14 16h04.47.895805 +0530,
0.4,1000,exp,12,8,152,4,834.0200313001405,,834.0077937000897,834.0200313001405,835.0203541000374,835.0203541000374,835.0203541000374,836.3217084000353,space,1.2884961999952793,None,836.3226811001077,836.7373479665878,837.068247999996,837.0314541000407,837.0315016000532,837.068247999996,837.068247999996,837.068247999996,839.0037928000093,400,1,[1.9690054999664426],[1.9690180998295546],712514,001,2024-11-14_16h04.43.786,intentional binding,2024.1.5,None,2024-11-14 16h04.47.895805 +0530,
0.1,400,unexp,12,9,153,0,839.0190016999841,,839.0051525000017,839.0190016999841,840.0198443001136,840.0198443001136,840.0198443001136,840.6064834001008,space,0.5843402999453247,None,840.6073727000039,840.7202537668093,841.0515358000994,841.0111414000858,841.0111899999902,841.0515358000994,841.0515358000994,841.0515358000994,845.2034905001055,200,1,[4.189177399966866],[4.189194899983704],712514,001,2024-11-14_16h04.43.786,intentional binding,2024.1.5,None,2024-11-14 16h04.47.895805 +0530,
0.1,1000,exp,12,10,154,3,845.2196357001085,,845.2051929000299,845.2196357001085,846.2209185999818,846.2209185999818,846.2209185999818,846.7386805000715,space,0.5009751000907272,None,846.7397350000683,846.8533254666875,847.1851399000734,847.1521330000833,847.1521914999466,847.1851399000734,847.1851399000734,847.1851399000734,849.1030814000405,200,1,[1.9479900000151247],[1.9480061000213027],712514,001,2024-11-14_16h04.43.786,intentional binding,2024.1.5,None,2024-11-14 16h04.47.895805 +0530,
0.4,1000,exp,12,11,155,7,849.1204953999259,,849.1046931000892,849.1204953999259,850.1032763000112,850.1032763000112,850.1200931000058,850.5552193999756,space,0.43918159999884665,None,850.5560838000383,850.970145266798,851.2851283999626,851.2611515000463,851.2611922000069,851.2851283999626,851.2851283999626,851.2851283999626,853.8533831001259,300,1,[2.589625700144097],[2.5896436001639813],712514,001,2024-11-14_16h04.43.786,intentional binding,2024.1.5,None,2024-11-14 16h04.47.895805 +0530,
0.7,1000,exp,13,0,156,8,853.8698583000805,,853.8549254999962,853.8698583000805,854.8534965000581,854.8534965000581,854.8708464999218,855.2392947000917,space,0.3702004998922348,None,855.2401741999201,855.9536059667046,856.2852747999132,856.2512000999413,856.2512924999464,856.2852747999132,856.2852747999132,856.2852747999132,858.086641300004,400,1,[1.831904900027439],[1.8319197001401335],712514,001,2024-11-14_16h04.43.786,intentional binding,2024.1.5,None,2024-11-14 16h04.47.895805 +0530,
0.4,1000,exp,13,1,157,7,858.1031194999814,,858.088323400123,858.1031194999814,859.086675999919,859.086675999919,859.1032964999322,859.804994800128,space,0.7091547001618892,None,859.806058099959,860.2203432666759,860.5348620999139,860.5115890000015,860.5116342001129,860.5348620999139,860.5348620999139,860.5348620999139,862.4714432000183,200,1,[1.957226000027731],[1.9572415000293404],712514,001,2024-11-14_16h04.43.786,intentional binding,2024.1.5,None,2024-11-14 16h04.47.895805 +0530,
0.4,1000,exp,13,2,158,10,862.4865576999728,,862.4729353000876,862.4865576999728,863.4868385000154,863.4868385000154,863.4868385000154,864.0549951000139,space,0.5557866999879479,None,864.0560812000185,864.4699538667376,864.8019699000288,864.7660543001257,864.7661198000424,864.8019699000288,864.8019699000288,864.8019699000288,866.9055743999779,100,1,[2.135956200072542],[2.135974100092426],712514,001,2024-11-14_16h04.43.786,intentional binding,2024.1.5,None,2024-11-14 16h04.47.895805 +0530,
0.7,1000,exp,13,3,159,11,866.919430000009,,866.9071265999228,866.919430000009,867.9198545999825,867.9198545999825,867.9198545999825,868.5392305999994,space,0.6080118999816477,None,868.5401272999588,869.2557942667665,869.5848719999194,869.5563755000476,869.5564260000829,869.5848719999194,869.5848719999194,869.5848719999194,871.5866215999704,300,1,[2.0270932000130415],[2.027108000125736],712514,001,2024-11-14_16h04.43.786,intentional binding,2024.1.5,None,2024-11-14 16h04.47.895805 +0530,
0.1,1000,exp,13,4,160,6,871.6029002999421,,871.5881606999319,871.6029002999421,872.5875331999268,872.5875331999268,872.6042893999256,873.3959564999677,space,0.7968065999448299,None,873.3971172999591,873.5012571667942,873.8352024001069,873.8019674001262,873.8020278001204,873.8352024001069,873.8352024001069,873.8352024001069,876.8545538999606,200,1,[3.0493932000827044],[3.0494113999884576],712514,001,2024-11-14_16h04.43.786,intentional binding,2024.1.5,None,2024-11-14 16h04.47.895805 +0530,
0.1,1000,exp,13,5,161,3,876.8704693999607,,876.8560876999982,876.8704693999607,877.8700721000787,877.8700721000787,877.8700721000787,878.3731156999711,space,0.49022660008631647,None,878.3740376001224,878.4870636666349,878.8015537001193,878.7814656000119,878.781506099971,878.8015537001193,878.8015537001193,878.8015537001193,880.8211481999606,200,1,[2.0367944999597967],[2.0368092998396605],712514,001,2024-11-14_16h04.43.786,intentional binding,2024.1.5,None,2024-11-14 16h04.47.895805 +0530,
0.7,400,unexp,13,6,162,2,880.8365186001174,,880.8226334000938,880.8365186001174,881.8376607999671,881.8376607999671,881.8376607999671,882.1895743000787,space,0.3487121998332441,None,882.1905582000036,882.9037280667728,883.2345984000713,883.2015325000975,883.201599100139,883.2345984000713,883.2345984000713,883.2345984000713,885.5379137001,300,1,[2.333056400064379],[2.33307410008274],712514,001,2024-11-14_16h04.43.786,intentional binding,2024.1.5,None,2024-11-14 16h04.47.895805 +0530,
0.1,1000,exp,13,7,163,9,885.5539041999727,,885.539405999938,885.5539041999727,886.5534429999534,886.5534429999534,886.5534429999534,887.338402699912,space,0.7684867999050766,None,887.3393856000621,887.4534604666444,887.7857798000332,887.7519656999502,887.75211640005,887.7857798000332,887.7857798000332,887.7857798000332,895.0386308000889,200,1,[7.283381200162694],[7.283398700179532],712514,001,2024-11-14_16h04.43.786,intentional binding,2024.1.5,None,2024-11-14 16h04.47.895805 +0530,
0.4,400,unexp,13,8,164,1,895.0528168000747,,895.0401487001218,895.0528168000747,896.0533767000306,896.0533767000306,896.0533767000306,896.689974399982,space,0.6342090000398457,None,896.6909728001337,897.1038223666294,897.4351188000292,897.4015963999555,897.4016476001125,897.4351188000292,897.4351188000292,897.4351188000292,899.987372700125,300,1,[2.582662699976936],[2.5826797001063824],712514,001,2024-11-14_16h04.43.786,intentional binding,2024.1.5,None,2024-11-14 16h04.47.895805 +0530,
0.1,400,unexp,13,9,165,0,900.002990399953,,899.9889054999221,900.002990399953,900.9869091999717,900.9869091999717,901.0041352000553,901.5733992001042,space,0.581630399916321,None,901.5744179000612,901.686985366807,902.0185072000604,901.9812042999547,901.9812549999915,902.0185072000604,902.0185072000604,902.0185072000604,905.0364850999322,200,1,[3.0519110998138785],[3.0519254999235272],712514,001,2024-11-14_16h04.43.786,intentional binding,2024.1.5,None,2024-11-14 16h04.47.895805 +0530,
0.7,1000,exp,13,10,166,5,905.0531796999276,,905.0379806999117,905.0531796999276,906.0369935000781,906.0369935000781,906.0541783999652,906.4222643999383,space,0.3694829000160098,None,906.4231404000893,907.136771066642,907.4686012000311,907.4310671000276,907.4311321999412,907.4686012000311,907.4686012000311,907.4686012000311,909.4532542000525,400,1,[2.01906120008789],[2.019076199969277],712514,001,2024-11-14_16h04.43.786,intentional binding,2024.1.5,None,2024-11-14 16h04.47.895805 +0530,
0.4,1000,exp,13,11,167,4,909.4699572001118,,909.4548567999154,909.4699572001118,910.4538305001333,910.4538305001333,910.4703166000545,910.9721397999674,space,0.5073330998420715,None,910.973165600095,911.3872875667332,911.7181780000683,911.681157700019,911.6812068999279,911.7181780000683,911.7181780000683,911.7181780000683,914.5034221999813,200,1,[2.8187995001208037],[2.8188158001285046],712514,001,2024-11-14_16h04.43.786,intentional binding,2024.1.5,None,2024-11-14 16h04.47.895805 +0530,
0.7,1000,exp,14,0,168,8,914.5206373000983,,914.5050431001,914.5206373000983,915.5037497000303,915.5037497000303,915.5205276999623,916.0722823999822,space,0.5605975000653416,None,916.0730771000963,916.7870258666264,917.1183555000462,917.0815113000572,917.0815655000042,917.1183555000462,917.1183555000462,917.1183555000462,919.506409799913,300,1,[2.4218916001264006],[2.4219088000245392],712514,001,2024-11-14_16h04.43.786,intentional binding,2024.1.5,None,2024-11-14 16h04.47.895805 +0530,
0.4,1000,exp,14,1,169,7,919.5212427000515,,919.5079608000815,919.5212427000515,920.5209558999632,920.5209558999632,920.5209558999632,921.0562189000193,space,0.5329348999075592,None,921.0571145000868,921.4702203667878,921.8022670000792,921.7698029000312,921.7698568999767,921.8022670000792,921.8022670000792,921.8022670000792,924.2376276999712,400,1,[2.4651909999083728],[2.4652092000469565],712514,001,2024-11-14_16h04.43.786,intentional binding,2024.1.5,None,2024-11-14 16h04.47.895805 +0530,
0.7,1000,exp,14,2,170,5,924.2531502000056,,924.2394109999295,924.2531502000056,925.253617099952,925.253617099952,925.253617099952,925.6386615999509,space,0.36786230001598597,None,925.6396475001238,926.3537435667279,926.6852981999982,926.6516935999971,926.651761499932,926.6852981999982,926.6852981999982,926.6852981999982,937.9064768999815,300,1,[11.251045600045472],[11.25106170005165],712514,001,2024-11-14_16h04.43.786,intentional binding,2024.1.5,None,2024-11-14 16h04.47.895805 +0530,
0.1,400,unexp,14,3,171,0,937.9196989000775,,937.9080121999141,937.9196989000775,938.920313199982,938.920313199982,938.920313199982,939.3892685999162,space,0.46277930005453527,None,939.3901325999759,939.5039988665997,939.8353009000421,939.801610100083,939.8016685999464,939.8353009000421,939.8353009000421,939.8353009000421,941.6375655999873,100,1,[1.8326906999573112],[1.8327156000304967],712514,001,2024-11-14_16h04.43.786,intentional binding,2024.1.5,None,2024-11-14 16h04.47.895805 +0530,
0.7,1000,exp,14,4,172,11,941.6536731000524,,941.6393101001158,941.6536731000524,942.6374127001036,942.6374127001036,942.6538311999757,943.2060992000625,space,0.5508861001580954,None,943.2069644001313,943.9204041667438,944.2351609999314,944.2118637000676,944.2119134999812,944.2351609999314,944.2351609999314,944.2351609999314,946.1035732999444,200,1,[1.8889958001673222],[1.889012600062415],712514,001,2024-11-14_16h04.43.786,intentional binding,2024.1.5,None,2024-11-14 16h04.47.895805 +0530,
0.4,1000,exp,14,5,173,4,946.1199797000736,,946.1052284000907,946.1199797000736,947.103757899953,947.103757899953,947.1204733001068,948.1728515001014,space,1.062500499887392,None,948.1738235999364,948.5869421666177,948.9191791000776,948.8812466000672,948.881296900101,948.9191791000776,948.9191791000776,948.9191791000776,951.5363475999329,200,1,[2.6522831001784652],[2.6522910001222044],712514,001,2024-11-14_16h04.43.786,intentional binding,2024.1.5,None,2024-11-14 16h04.47.895805 +0530,
0.4,1000,exp,14,6,174,10,951.5521750999615,,951.5369575999212,951.5521750999615,952.5368910999969,952.5368910999969,952.5535466999281,953.1231045001186,space,0.5830590999685228,None,953.1248890999705,953.5375051666672,953.8684209000785,953.8319461999927,953.8319997000508,953.8684209000785,953.8684209000785,953.8684209000785,955.6211715000682,300,1,[1.7856435999274254],[1.785660699941218],712514,001,2024-11-14_16h04.43.786,intentional binding,2024.1.5,None,2024-11-14 16h04.47.895805 +0530,
0.1,1000,exp,14,7,175,9,955.6367816000711,,955.6226934001315,955.6367816000711,956.6376529999543,956.6376529999543,956.6376529999543,957.0888662999496,space,0.44047440006397665,None,957.0898901999462,957.203629766653,957.5353755999822,957.5024254000746,957.5024818999227,957.5353755999822,957.5353755999822,957.5353755999822,959.837061499944,100,1,[2.3316214999649674],[2.331637099850923],712514,001,2024-11-14_16h04.43.786,intentional binding,2024.1.5,None,2024-11-14 16h04.47.895805 +0530,
0.4,400,unexp,14,8,176,1,959.853707500035,,959.8388301001396,959.853707500035,960.8377078999765,960.8377078999765,960.8539408000652,961.2731846000534,space,0.4303830999415368,None,961.274324500002,961.686884566738,962.0186348001007,961.9812682999764,961.9813143999781,962.0186348001007,962.0186348001007,962.0186348001007,964.3557792999782,200,1,[2.3714064001105726],[2.371423300122842],712514,001,2024-11-14_16h04.43.786,intentional binding,2024.1.5,None,2024-11-14 16h04.47.895805 +0530,
0.7,400,unexp,14,9,177,2,964.3697983000893,,964.3573173000477,964.3697983000893,965.3706137000117,965.3706137000117,965.3706137000117,965.8051529999357,space,0.4198399998713285,None,965.8066392999608,966.5181827666859,,966.7638936000876,966.7639192999341,966.7850985999685,966.7850985999685,966.7850985999685,969.6724191000685,300,1,[2.9064175002276897],[2.906435100128874],712514,001,2024-11-14_16h04.43.786,intentional binding,2024.1.5,None,2024-11-14 16h04.47.895805 +0530,
0.1,1000,exp,14,10,178,3,969.6868078999687,,969.6739523999859,969.6868078999687,970.686989699956,970.686989699956,970.686989699956,972.1660643001087,space,1.454549300018698,None,972.1745033999905,972.2854778667136,972.6189306001179,972.5814886000007,972.58154439996,972.6189306001179,972.6189306001179,972.6189306001179,975.7039560000412,200,1,[3.1199118001386523],[3.119923199992627],712514,001,2024-11-14_16h04.43.786,intentional binding,2024.1.5,None,2024-11-14 16h04.47.895805 +0530,
0.1,1000,exp,14,11,179,6,975.7191226999275,,975.705024200026,975.7191226999275,976.7042881001253,976.7042881001253,976.7204714999534,977.0889093999285,space,0.3728044999297708,None,977.0899704999756,977.2042699666383,977.535054200096,977.5015895001125,977.5016600999516,977.535054200096,977.535054200096,977.535054200096,979.5382515999954,100,1,[2.03319300012663],[2.0332110000308603],712514,001,2024-11-14_16h04.43.786,intentional binding,2024.1.5,None,2024-11-14 16h04.47.895805 +0530,
0.7,1000,exp,15,0,180,5,979.553359700134,,979.5397401000373,979.553359700134,980.5536047001369,980.5536047001369,980.5536047001369,981.0902792001143,space,0.532171499915421,None,981.0912858000956,981.8033348667125,982.1359298001043,982.1017784001306,982.1018306999467,982.1359298001043,982.1359298001043,982.1359298001043,984.8557643000968,300,1,[2.7503206001129],[2.7503361999988556],712514,001,2024-11-14_16h04.43.786,intentional binding,2024.1.5,None,2024-11-14 16h04.47.895805 +0530,
0.4,1000,exp,15,1,181,4,984.8704923000187,,984.8572702999227,984.8704923000187,985.8708037000615,985.8708037000615,985.8708037000615,986.2897830000147,space,0.40815330017358065,None,986.2906176000834,986.7036274667519,987.0350560999941,987.0021244999953,987.0021776999347,987.0350560999941,987.0350560999941,987.0350560999941,989.2876274001319,200,1,[2.2827096998225898],[2.2827260999474674],712514,001,2024-11-14_16h04.43.786,intentional binding,2024.1.5,None,2024-11-14 16h04.47.895805 +0530,
0.7,1000,exp,15,2,182,8,989.303621500032,,989.2891649000812,989.303621500032,990.3040148001164,990.3040148001164,990.3040148001164,990.8391015001107,space,0.5249745000619441,None,990.8401220000815,991.5540474667835,991.885905199917,991.8513241000473,991.8513895000797,991.885905199917,991.885905199917,991.885905199917,994.8062855000608,100,1,[2.951741199940443],[2.9517600999679416],712514,001,2024-11-14_16h04.43.786,intentional binding,2024.1.5,None,2024-11-14 16h04.47.895805 +0530,
0.7,400,unexp,15,3,183,2,994.8198387001175,,994.8078489000909,994.8198387001175,995.8208195001353,995.8208195001353,995.8208195001353,996.6894563999958,space,0.8578141001053154,None,996.6903935999144,997.4034717668003,997.735619999934,997.7014371000696,997.7015102000441,997.735619999934,997.735619999934,997.735619999934,999.9890249001328,200,1,[2.284043899970129],[2.2840613001026213],712514,001,2024-11-14_16h04.43.786,intentional binding,2024.1.5,None,2024-11-14 16h04.47.895805 +0530,
0.1,1000,exp,15,4,184,3,1000.0031356001273,,999.9905044999905,1000.0031356001273,1001.003972500097,1001.003972500097,1001.003972500097,1001.5894987999927,space,0.5713059999980032,None,1001.5903734001331,1001.7037409668012,1002.035725499969,1002.0014869000297,1002.0015469000209,1002.035725499969,1002.035725499969,1002.035725499969,1004.1053244001232,100,1,[2.1002465998753905],[2.1002621999941766],712514,001,2024-11-14_16h04.43.786,intentional binding,2024.1.5,None,2024-11-14 16h04.47.895805 +0530,
0.7,1000,exp,15,5,185,11,1004.1205174999777,,1004.1069332000334,1004.1205174999777,1005.1204214999452,1005.1204214999452,1005.1204214999452,1005.6565153999254,space,0.5208793999627233,None,1005.6574820999522,1006.3706311667959,1006.6858067999128,1006.6612265000585,1006.6612740999553,1006.6858067999128,1006.6858067999128,1006.6858067999128,1009.0893262000754,200,1,[2.425208800006658],[2.42522620013915],712514,001,2024-11-14_16h04.43.786,intentional binding,2024.1.5,None,2024-11-14 16h04.47.895805 +0530,
0.1,400,unexp,15,6,186,0,1009.1040968000889,,1009.0908079999499,1009.1040968000889,1010.104244899936,1010.104244899936,1010.104244899936,1010.4905560999177,space,0.383648999966681,None,1010.4915022000205,1010.6041052668045,1010.9352748000529,1010.901586299995,1010.9016634,1010.9352748000529,1010.9352748000529,1010.9352748000529,1013.1723573000636,100,1,[2.2671165000647306],[2.2671517999842763],712514,001,2024-11-14_16h04.43.786,intentional binding,2024.1.5,None,2024-11-14 16h04.47.895805 +0530,
0.4,1000,exp,15,7,187,7,1013.1866145001259,,1013.1741313999519,1013.1866145001259,1014.1871518001426,1014.1871518001426,1014.1871518001426,1014.7392502999865,space,0.5432847000192851,None,1014.7401384999976,1015.1543222666407,1015.4854999000672,1015.4524201001041,1015.4524767999537,1015.4854999000672,1015.4854999000672,1015.4854999000672,1017.9897356999572,100,1,[2.5343991999980062],[2.534415800124407],712514,001,2024-11-14_16h04.43.786,intentional binding,2024.1.5,None,2024-11-14 16h04.47.895805 +0530,
0.1,1000,exp,15,8,188,6,1018.0034237001091,,1017.991227600025,1018.0034237001091,1019.0039747999981,1019.0039747999981,1019.0039747999981,1019.355810899986,space,0.34461869997903705,None,1019.3566519001033,1019.4711176667518,1019.7855871000793,1019.7612425000407,1019.7612890000455,1019.7855871000793,1019.7855871000793,1019.7855871000793,1023.7223201999441,100,1,[3.9579992999788374],[3.9580147000961006],712514,001,2024-11-14_16h04.43.786,intentional binding,2024.1.5,None,2024-11-14 16h04.47.895805 +0530,
0.4,400,unexp,15,9,189,1,1023.7370458000805,,1023.7237970000133,1023.7370458000805,1024.73722920008,1024.73722920008,1024.73722920008,1026.3393097000662,space,1.5937053000088781,None,1026.3408411000855,1026.754009766799,1027.0859028999694,1027.0514452999923,1027.0515038999729,1027.0859028999694,1027.0859028999694,1027.0859028999694,1029.1716261999682,200,1,[2.1172971001360565],[2.117312300018966],712514,001,2024-11-14_16h04.43.786,intentional binding,2024.1.5,None,2024-11-14 16h04.47.895805 +0530,
0.1,1000,exp,15,10,190,9,1029.1873204000294,,1029.1731171000283,1029.1873204000294,1030.1873661999125,1030.1873661999125,1030.1873661999125,1031.2066923000384,space,1.00997249991633,None,1031.2076427000575,1031.3207602666846,1031.635368600022,1031.6115880999714,1031.6116329000797,1031.635368600022,1031.635368600022,1031.635368600022,1034.0704417000525,100,1,[2.455487000057474],[2.4555021000560373],712514,001,2024-11-14_16h04.43.786,intentional binding,2024.1.5,None,2024-11-14 16h04.47.895805 +0530,
0.4,1000,exp,15,11,191,10,1034.087056600023,,1034.071986099938,1034.087056600023,1035.0711618999485,1035.0711618999485,1035.087704299949,1036.0563823999837,space,0.9737048998940736,None,1036.0576502999756,1036.4703992666366,1036.802189100068,1036.7615354999434,1036.7615795000456,1036.802189100068,1036.802189100068,1036.802189100068,1048.4393212001305,200,1,[11.674872000003234],[11.67488899989985],712514,001,2024-11-14_16h04.43.786,intentional binding,2024.1.5,None,2024-11-14 16h04.47.895805 +0530,
0.7,1000,exp,16,0,192,8,1048.453892200021,,1048.4408597999718,1048.453892200021,1049.4536995000672,1049.4536995000672,1049.4536995000672,1049.8569173000287,space,0.4001422000583261,None,1049.857808599947,1050.5707923665798,1050.9028813999612,1050.861222699983,1050.8612957999576,1050.9028813999612,1050.9028813999612,1050.9028813999612,1052.9888857000042,300,1,[2.1244010999798775],[2.1244167999830097],712514,001,2024-11-14_16h04.43.786,intentional binding,2024.1.5,None,2024-11-14 16h04.47.895805 +0530,
0.7,1000,exp,16,1,193,5,1053.0037257999647,,1052.9904640999157,1053.0037257999647,1054.0035170000046,1054.0035170000046,1054.0035170000046,1054.9892011999618,space,0.9776477001141757,None,1054.9900492001325,1055.7032976668017,,1055.9444798000623,1055.9445293999743,1055.9687385000288,1055.9687385000288,1055.9687385000288,1058.6730446999427,200,1,[2.7252706999424845],[2.7252883000764996],712514,001,2024-11-14_16h04.43.786,intentional binding,2024.1.5,None,2024-11-14 16h04.47.895805 +0530,
0.7,400,unexp,16,2,194,2,1058.6870838000905,,1058.6746461000293,1058.6870838000905,1059.687200000044,1059.687200000044,1059.687200000044,1060.3227778999135,space,0.619165699928999,None,1060.3236434999853,1061.0370076667207,1061.3691080000717,1061.331094800029,1061.3311703000218,1061.3691080000717,1061.3691080000717,1061.3691080000717,1063.3385290000588,400,1,[2.004221900133416],[2.0042399999219924],712514,001,2024-11-14_16h04.43.786,intentional binding,2024.1.5,None,2024-11-14 16h04.47.895805 +0530,
0.4,1000,exp,16,3,195,10,1063.3539833000395,,1063.340050100116,1063.3539833000395,1064.354102600133,1064.354102600133,1064.354102600133,1065.2562983001117,space,0.8858519999776036,None,1065.2572870000731,1065.6710401666971,1066.0024624001235,1065.9615476999898,1065.961593999993,1066.0024624001235,1066.0024624001235,1066.0024624001235,1068.3198871000204,200,1,[2.3560772999189794],[2.3560831998474896],712514,001,2024-11-14_16h04.43.786,intentional binding,2024.1.5,None,2024-11-14 16h04.47.895805 +0530,
0.1,1000,exp,16,4,196,9,1068.335170000093,,1068.320464800112,1068.335170000093,1069.3211199000943,1069.3211199000943,1069.3372100999113,1069.7227676000912,space,0.39253569999709725,None,1069.7239981000312,1069.8381328667203,1070.16902079992,1070.1385017000139,1070.1385590999853,1070.16902079992,1070.16902079992,1070.16902079992,1072.22055800003,100,1,[2.07923229993321],[2.079248599940911],712514,001,2024-11-14_16h04.43.786,intentional binding,2024.1.5,None,2024-11-14 16h04.47.895805 +0530,
0.4,1000,exp,16,5,197,7,1072.2371209000703,,1072.222254900029,1072.2371209000703,1073.220970599912,1073.220970599912,1073.2375847999938,1073.6899727999698,space,0.46180359995923936,None,1073.6909902999178,1074.1039708667124,1074.436208799947,1074.4022486999165,1074.4023178000934,1074.436208799947,1074.436208799947,1074.436208799947,1076.404870199971,100,1,[1.9989750001113862],[1.9989922000095248],712514,001,2024-11-14_16h04.43.786,intentional binding,2024.1.5,None,2024-11-14 16h04.47.895805 +0530,
0.4,1000,exp,16,6,198,4,1076.4204319999553,,1076.406483199913,1076.4204319999553,1077.4209704000968,1077.4209704000968,1077.4209704000968,1078.2049692000728,space,0.7748634999152273,None,1078.2059393001255,1078.620595666642,1078.935857299948,1078.9116966000292,1078.911743100034,1078.935857299948,1078.935857299948,1078.935857299948,1081.2551180000883,100,1,[2.3408374001737684],[2.3408556000795215],712514,001,2024-11-14_16h04.43.786,intentional binding,2024.1.5,None,2024-11-14 16h04.47.895805 +0530,
0.1,1000,exp,16,7,199,3,1081.2704020000529,,1081.2568214000203,1081.2704020000529,1082.2707354999147,1082.2707354999147,1082.2707354999147,1083.3064564999659,space,1.0215529999695718,None,1083.307431000052,1083.4211936665854,1083.735617000144,1083.711592100095,1083.7116344999522,1083.735617000144,1083.735617000144,1083.735617000144,1086.656143200118,200,1,[2.9417621998582035],[2.941777299856767],712514,001,2024-11-14_16h04.43.786,intentional binding,2024.1.5,None,2024-11-14 16h04.47.895805 +0530,
0.1,1000,exp,16,8,200,6,1086.6710010999814,,1086.6577993000392,1086.6710010999814,1087.6709793999325,1087.6709793999325,1087.6709793999325,1088.2570994000416,space,0.5792245999909937,None,1088.2580089999828,1088.3705382666706,1088.685594700044,1088.6613592000213,1088.6614065999165,1088.685594700044,1088.685594700044,1088.685594700044,1091.0062245000154,100,1,[2.3418556000106037],[2.3418725000228733],712514,001,2024-11-14_16h04.43.786,intentional binding,2024.1.5,None,2024-11-14 16h04.47.895805 +0530,
